type,t0,adc0,t1,adc1,t2,adc2,t3,adc3,t4,acc_x,acc_y,acc_z,t5,gyro_x,gyro_y,gyro_z
mpu,,,,,,,,,1543134148.0,2352.0,15458.0,-25612.0,1543134148.0,-158.0,-323.0,10.0
mpu,,,,,,,,,1543233745.0,4598.0,15086.0,-26984.0,1543233745.0,-254.0,-673.0,5.0
mpu,,,,,,,,,1543333732.0,4674.0,16250.0,-26060.0,1543333732.0,-340.0,-592.0,87.0
mpu,,,,,,,,,1543433738.0,6710.0,14340.0,-26526.0,1543433738.0,-559.0,-879.0,88.0
mpu,,,,,,,,,1543534372.0,6798.0,13954.0,-24740.0,1543534372.0,-571.0,-510.0,94.0
mpu,,,,,,,,,1543633772.0,6168.0,13656.0,-24602.0,1543633772.0,-381.0,7.0,131.0
mpu,,,,,,,,,1543733736.0,6080.0,12820.0,-25392.0,1543733736.0,-137.0,161.0,153.0
mpu,,,,,,,,,1543833738.0,5586.0,11594.0,-24922.0,1543833738.0,128.0,296.0,151.0
mpu,,,,,,,,,1543934398.0,5338.0,11960.0,-25732.0,1543934398.0,273.0,-54.0,4.0
mpu,,,,,,,,,1544033733.0,4480.0,11878.0,-25264.0,1544033733.0,403.0,28.0,-238.0
mpu,,,,,,,,,1544133734.0,1212.0,10436.0,-26622.0,1544133734.0,505.0,-92.0,-476.0
mpu,,,,,,,,,1544233735.0,6424.0,11986.0,-26148.0,1544233735.0,676.0,13.0,-677.0
mpu,,,,,,,,,1544334358.0,952.0,14484.0,-26122.0,1544334358.0,739.0,297.0,-648.0
mpu,,,,,,,,,1544433743.0,470.0,14166.0,-30268.0,1544433743.0,950.0,176.0,-338.0
mpu,,,,,,,,,1544533739.0,604.0,15654.0,-30646.0,1544533739.0,984.0,-63.0,-297.0
mpu,,,,,,,,,1544633736.0,788.0,14496.0,-29018.0,1544633736.0,816.0,-232.0,-385.0
mpu,,,,,,,,,1544734362.0,1164.0,17870.0,-31312.0,1544734362.0,728.0,-242.0,-312.0
mpu,,,,,,,,,1544833751.0,1478.0,19334.0,-32768.0,1544833751.0,430.0,-134.0,-170.0
mpu,,,,,,,,,1544933734.0,798.0,18556.0,-32768.0,1544933734.0,128.0,-4.0,-71.0
mpu,,,,,,,,,1545033742.0,1300.0,23246.0,-32768.0,1545033742.0,-144.0,134.0,30.0
mpu,,,,,,,,,1545133925.0,-4512.0,24694.0,-32768.0,1545133925.0,-977.0,305.0,510.0
mpu,,,,,,,,,1545233747.0,8068.0,12858.0,-28384.0,1545233747.0,-1680.0,-230.0,690.0
mpu,,,,,,,,,1545333743.0,60.0,22246.0,-32768.0,1545333743.0,-1360.0,44.0,620.0
mpu,,,,,,,,,1545433748.0,4630.0,15732.0,-27898.0,1545433748.0,-1330.0,59.0,580.0
mpu,,,,,,,,,1545534361.0,3604.0,14716.0,-25922.0,1545534361.0,-1026.0,43.0,612.0
mpu,,,,,,,,,1545633745.0,4174.0,12922.0,-26238.0,1545633745.0,-419.0,-69.0,447.0
mpu,,,,,,,,,1545733739.0,5060.0,8034.0,-28518.0,1545733739.0,397.0,-43.0,48.0
mpu,,,,,,,,,1545833739.0,776.0,8994.0,-30420.0,1545833739.0,798.0,-26.0,-637.0
mpu,,,,,,,,,1545934589.0,1092.0,6006.0,-28026.0,1545934589.0,1062.0,127.0,-1141.0
mpu,,,,,,,,,1546033732.0,4108.0,12342.0,-27428.0,1546033732.0,1281.0,423.0,-591.0
mpu,,,,,,,,,1546133733.0,2998.0,15388.0,-26840.0,1546133733.0,1225.0,-155.0,-474.0
mpu,,,,,,,,,1546233739.0,3894.0,19856.0,-26732.0,1546233739.0,1085.0,-364.0,-383.0
mpu,,,,,,,,,1546334607.0,2568.0,24492.0,-32768.0,1546334607.0,744.0,-65.0,-264.0
mpu,,,,,,,,,1546433746.0,2324.0,25368.0,-32768.0,1546433746.0,-74.0,108.0,19.0
mpu,,,,,,,,,1546533743.0,1604.0,21688.0,-32768.0,1546533743.0,-1612.0,-82.0,780.0
mpu,,,,,,,,,1546633796.0,3524.0,23194.0,-27584.0,1546633796.0,-1883.0,116.0,1011.0
mpu,,,,,,,,,1546734814.0,3572.0,16628.0,-27558.0,1546734814.0,-1768.0,150.0,856.0
mpu,,,,,,,,,1546833743.0,4274.0,12994.0,-27966.0,1546833743.0,-1146.0,-42.0,660.0
mpu,,,,,,,,,1546933740.0,3060.0,8996.0,-28866.0,1546933740.0,-89.0,30.0,245.0
mpu,,,,,,,,,1547033728.0,2066.0,3118.0,-31094.0,1547033728.0,896.0,-57.0,-379.0
mpu,,,,,,,,,1547134208.0,4964.0,5638.0,-28648.0,1547134208.0,1216.0,-60.0,-1131.0
mpu,,,,,,,,,1547233745.0,2680.0,11394.0,-26546.0,1547233745.0,1315.0,400.0,-954.0
mpu,,,,,,,,,1547333730.0,4392.0,16576.0,-24742.0,1547333730.0,1472.0,56.0,-550.0
mpu,,,,,,,,,1547433737.0,3144.0,26810.0,-31152.0,1547433737.0,1278.0,-392.0,-379.0
mpu,,,,,,,,,1547534131.0,-1922.0,26160.0,-32768.0,1547534131.0,479.0,14.0,-111.0
mpu,,,,,,,,,1547633745.0,-574.0,26530.0,-32768.0,1547633745.0,-1097.0,30.0,524.0
mpu,,,,,,,,,1547733731.0,2838.0,21506.0,-31164.0,1547733731.0,-2141.0,201.0,1162.0
mpu,,,,,,,,,1547833734.0,2386.0,20024.0,-26402.0,1547833734.0,-2001.0,269.0,914.0
mpu,,,,,,,,,1547934255.0,1504.0,13878.0,-25032.0,1547934255.0,-1371.0,-48.0,753.0
mpu,,,,,,,,,1548033734.0,5338.0,7240.0,-28506.0,1548033734.0,-201.0,-167.0,268.0
mpu,,,,,,,,,1548133735.0,274.0,2244.0,-30826.0,1548133735.0,858.0,-51.0,-472.0
mpu,,,,,,,,,1548233736.0,4460.0,3582.0,-28852.0,1548233736.0,1310.0,-34.0,-1200.0
mpu,,,,,,,,,1548333844.0,2342.0,10972.0,-29448.0,1548333844.0,1458.0,490.0,-975.0
mpu,,,,,,,,,1548433760.0,6428.0,17318.0,-26414.0,1548433760.0,1476.0,1.0,-478.0
mpu,,,,,,,,,1548533732.0,470.0,27034.0,-32410.0,1548533732.0,1241.0,-372.0,-301.0
mpu,,,,,,,,,1548633763.0,-1068.0,29590.0,-32768.0,1548633763.0,258.0,33.0,-4.0
mpu,,,,,,,,,1548733833.0,-1990.0,26024.0,-32768.0,1548733833.0,-1524.0,15.0,717.0
mpu,,,,,,,,,1548833776.0,1590.0,21298.0,-31730.0,1548833776.0,-2337.0,177.0,1234.0
mpu,,,,,,,,,1548933740.0,3310.0,15340.0,-28220.0,1548933740.0,-1900.0,162.0,951.0
mpu,,,,,,,,,1549033731.0,2088.0,9674.0,-28148.0,1549033731.0,-924.0,-23.0,603.0
mpu,,,,,,,,,1549133864.0,2992.0,3180.0,-29668.0,1549133864.0,381.0,-134.0,-66.0
mpu,,,,,,,,,1549233747.0,3262.0,2838.0,-28246.0,1549233747.0,1149.0,-136.0,-945.0
mpu,,,,,,,,,1549333735.0,854.0,3350.0,-29646.0,1549333735.0,1431.0,164.0,-1193.0
mpu,,,,,,,,,1549433736.0,4026.0,12234.0,-25990.0,1549433736.0,1536.0,261.0,-721.0
mpu,,,,,,,,,1549534094.0,4812.0,24468.0,-27858.0,1549534094.0,1445.0,-190.0,-418.0
mpu,,,,,,,,,1549633744.0,3358.0,28420.0,-32768.0,1549633744.0,657.0,-168.0,-173.0
mpu,,,,,,,,,1549733735.0,-334.0,29036.0,-32768.0,1549733735.0,-908.0,-62.0,427.0
mpu,,,,,,,,,1549833731.0,234.0,23616.0,-31734.0,1549833731.0,-2232.0,213.0,1226.0
mpu,,,,,,,,,1549934113.0,2404.0,17396.0,-30334.0,1549934113.0,-2062.0,262.0,1116.0
mpu,,,,,,,,,1550033733.0,3550.0,10780.0,-29076.0,1550033733.0,-1276.0,-3.0,745.0
mpu,,,,,,,,,1550133738.0,2894.0,4580.0,-28736.0,1550133738.0,54.0,-92.0,134.0
mpu,,,,,,,,,1550233792.0,-2970.0,1390.0,-30586.0,1550233792.0,1025.0,-296.0,-798.0
mpu,,,,,,,,,1550334413.0,3714.0,2830.0,-25894.0,1550334413.0,1446.0,86.0,-1316.0
mpu,,,,,,,,,1550433745.0,5442.0,11754.0,-24542.0,1550433745.0,1597.0,366.0,-814.0
mpu,,,,,,,,,1550533736.0,3966.0,23204.0,-27730.0,1550533736.0,1526.0,-9.0,-509.0
mpu,,,,,,,,,1550633735.0,1148.0,29686.0,-32768.0,1550633735.0,866.0,-262.0,-197.0
mpu,,,,,,,,,1550734135.0,-928.0,31124.0,-32768.0,1550734135.0,-724.0,-26.0,381.0
mpu,,,,,,,,,1550833774.0,-928.0,31124.0,-32768.0,1550833774.0,-724.0,-26.0,381.0
mpu,,,,,,,,,1550933737.0,2340.0,23930.0,-30244.0,1550933737.0,-2343.0,221.0,1250.0
mpu,,,,,,,,,1551033736.0,2424.0,18824.0,-31192.0,1551033736.0,-2210.0,220.0,1158.0
mpu,,,,,,,,,1551134103.0,3000.0,10232.0,-27652.0,1551134103.0,-1338.0,46.0,752.0
mpu,,,,,,,,,1551233743.0,2528.0,4026.0,-28878.0,1551233743.0,43.0,-127.0,95.0
mpu,,,,,,,,,1551333735.0,-2468.0,738.0,-29882.0,1551333735.0,1095.0,-299.0,-794.0
mpu,,,,,,,,,1551433738.0,4548.0,3200.0,-24796.0,1551433738.0,1475.0,105.0,-1295.0
mpu,,,,,,,,,1551533800.0,7412.0,13440.0,-19890.0,1551533800.0,1580.0,385.0,-853.0
mpu,,,,,,,,,1551633748.0,3622.0,25748.0,-28160.0,1551633748.0,1501.0,-108.0,-522.0
mpu,,,,,,,,,1551733744.0,824.0,28370.0,-32768.0,1551733744.0,838.0,-271.0,-201.0
mpu,,,,,,,,,1551833736.0,-2386.0,31662.0,-32768.0,1551833736.0,-740.0,26.0,388.0
mpu,,,,,,,,,1551934420.0,1980.0,23480.0,-31252.0,1551934420.0,-2386.0,154.0,1196.0
mpu,,,,,,,,,1552033730.0,2280.0,17718.0,-30026.0,1552033730.0,-2204.0,207.0,1110.0
mpu,,,,,,,,,1552133734.0,512.0,10846.0,-27706.0,1552133734.0,-1214.0,50.0,867.0
mpu,,,,,,,,,1552233738.0,4060.0,5214.0,-29922.0,1552233738.0,214.0,-235.0,196.0
mpu,,,,,,,,,1552334354.0,-354.0,2116.0,-27250.0,1552334354.0,1097.0,-164.0,-870.0
mpu,,,,,,,,,1552433746.0,2152.0,1406.0,-27140.0,1552433746.0,1459.0,112.0,-1352.0
mpu,,,,,,,,,1552533743.0,5072.0,14210.0,-23970.0,1552533743.0,1561.0,378.0,-848.0
mpu,,,,,,,,,1552633742.0,6462.0,27212.0,-28040.0,1552633742.0,1484.0,-173.0,-472.0
mpu,,,,,,,,,1552734416.0,-96.0,28824.0,-32768.0,1552734416.0,638.0,-182.0,-91.0
mpu,,,,,,,,,1552833750.0,-3226.0,29458.0,-32768.0,1552833750.0,-1152.0,-26.0,587.0
mpu,,,,,,,,,1552933740.0,678.0,22762.0,-31264.0,1552933740.0,-2456.0,309.0,1308.0
mpu,,,,,,,,,1553033741.0,1720.0,15392.0,-29476.0,1553033741.0,-2011.0,182.0,1112.0
mpu,,,,,,,,,1553133789.0,2102.0,11280.0,-27512.0,1553133789.0,-870.0,2.0,711.0
mpu,,,,,,,,,1553233745.0,2876.0,2164.0,-30356.0,1553233745.0,485.0,-289.0,-179.0
mpu,,,,,,,,,1553333760.0,4398.0,-1696.0,-32768.0,1553333760.0,1221.0,-151.0,-1229.0
mpu,,,,,,,,,1553433736.0,4832.0,6668.0,-23844.0,1553433736.0,1535.0,284.0,-1257.0
mpu,,,,,,,,,1553534306.0,5404.0,19404.0,-23710.0,1553534306.0,1632.0,270.0,-698.0
mpu,,,,,,,,,1553633743.0,2540.0,27562.0,-31250.0,1553633743.0,1347.0,-377.0,-348.0
mpu,,,,,,,,,1553733737.0,2686.0,30572.0,-32768.0,1553733737.0,39.0,23.0,127.0
mpu,,,,,,,,,1553833743.0,-112.0,26116.0,-32768.0,1553833743.0,-1962.0,-41.0,977.0
mpu,,,,,,,,,1553933821.0,3802.0,23766.0,-26654.0,1553933821.0,-2462.0,2.0,1420.0
mpu,,,,,,,,,1554033738.0,3634.0,8768.0,-32768.0,1554033738.0,-2082.0,-12.0,1525.0
mpu,,,,,,,,,1554133740.0,4680.0,8638.0,-23094.0,1554133740.0,-238.0,317.0,458.0
mpu,,,,,,,,,1554233739.0,-410.0,-1536.0,-32768.0,1554233739.0,789.0,-518.0,-760.0
mpu,,,,,,,,,1554333836.0,6774.0,1900.0,-26812.0,1554333836.0,1315.0,-261.0,-1627.0
mpu,,,,,,,,,1554433750.0,8036.0,11758.0,-20716.0,1554433750.0,1586.0,490.0,-1141.0
mpu,,,,,,,,,1554533728.0,4938.0,25848.0,-22184.0,1554533728.0,1672.0,36.0,-646.0
mpu,,,,,,,,,1554633732.0,-1992.0,31202.0,-27546.0,1554633732.0,761.0,-396.0,-136.0
mpu,,,,,,,,,1554733873.0,3580.0,29582.0,-32768.0,1554733873.0,-975.0,-2.0,594.0
mpu,,,,,,,,,1554833745.0,2394.0,25794.0,-30556.0,1554833745.0,-2304.0,308.0,1369.0
mpu,,,,,,,,,1554933736.0,3508.0,17412.0,-27980.0,1554933736.0,-2070.0,126.0,1251.0
mpu,,,,,,,,,1555033743.0,3696.0,9616.0,-26090.0,1555033743.0,-1067.0,-22.0,751.0
mpu,,,,,,,,,1555133794.0,1542.0,270.0,-31182.0,1555133794.0,517.0,62.0,-226.0
mpu,,,,,,,,,1555233752.0,4038.0,-1510.0,-32768.0,1555233752.0,1257.0,-289.0,-1169.0
mpu,,,,,,,,,1555333734.0,5280.0,4028.0,-31228.0,1555333734.0,1658.0,370.0,-1307.0
mpu,,,,,,,,,1555433738.0,4894.0,18610.0,-20932.0,1555433738.0,1741.0,324.0,-783.0
mpu,,,,,,,,,1555533801.0,4800.0,28332.0,-26070.0,1555533801.0,1300.0,-494.0,-363.0
mpu,,,,,,,,,1555633742.0,686.0,31614.0,-32768.0,1555633742.0,-105.0,-78.0,197.0
mpu,,,,,,,,,1555733741.0,-146.0,26874.0,-30326.0,1555733741.0,-1816.0,77.0,1066.0
mpu,,,,,,,,,1555833734.0,1338.0,19204.0,-30076.0,1555833734.0,-2438.0,316.0,1330.0
mpu,,,,,,,,,1555933799.0,964.0,12752.0,-27308.0,1555933799.0,-1568.0,48.0,1078.0
mpu,,,,,,,,,1556033733.0,2806.0,4838.0,-27596.0,1556033733.0,-181.0,-13.0,309.0
mpu,,,,,,,,,1556133737.0,-516.0,-346.0,-28726.0,1556133737.0,1002.0,-133.0,-797.0
mpu,,,,,,,,,1556233741.0,5032.0,180.0,-22100.0,1556233741.0,1499.0,97.0,-1368.0
mpu,,,,,,,,,1556333810.0,3876.0,16220.0,-22296.0,1556333810.0,1655.0,498.0,-961.0
mpu,,,,,,,,,1556433743.0,5646.0,25598.0,-23852.0,1556433743.0,1579.0,-131.0,-581.0
mpu,,,,,,,,,1556533729.0,60.0,28954.0,-32768.0,1556533729.0,692.0,-322.0,-61.0
mpu,,,,,,,,,1556633735.0,52.0,30270.0,-32768.0,1556633735.0,-1021.0,130.0,599.0
mpu,,,,,,,,,1556733852.0,3910.0,25346.0,-31352.0,1556733852.0,-2340.0,293.0,1316.0
mpu,,,,,,,,,1556833744.0,1888.0,15528.0,-31156.0,1556833744.0,-2077.0,185.0,1156.0
mpu,,,,,,,,,1556933736.0,3364.0,9620.0,-24980.0,1556933736.0,-1041.0,-46.0,611.0
mpu,,,,,,,,,1557033732.0,3908.0,992.0,-31416.0,1557033732.0,439.0,-286.0,-270.0
mpu,,,,,,,,,1557133747.0,2984.0,-632.0,-32768.0,1557133747.0,1229.0,-195.0,-1122.0
mpu,,,,,,,,,1557233740.0,4158.0,5704.0,-23224.0,1557233740.0,1642.0,452.0,-1195.0
mpu,,,,,,,,,1557333734.0,1190.0,18070.0,-21204.0,1557333734.0,1672.0,296.0,-809.0
mpu,,,,,,,,,1557433739.0,5824.0,29038.0,-29858.0,1557433739.0,1313.0,-507.0,-358.0
mpu,,,,,,,,,1557533741.0,1242.0,30064.0,-32768.0,1557533741.0,34.0,78.0,164.0
mpu,,,,,,,,,1557633733.0,-2332.0,25608.0,-32768.0,1557633733.0,-1975.0,214.0,1048.0
mpu,,,,,,,,,1557733740.0,1692.0,19052.0,-31474.0,1557733740.0,-2385.0,235.0,1287.0
mpu,,,,,,,,,1557833744.0,2640.0,12240.0,-27884.0,1557833744.0,-1680.0,70.0,966.0
mpu,,,,,,,,,1557933741.0,1900.0,5384.0,-27946.0,1557933741.0,-264.0,-98.0,259.0
mpu,,,,,,,,,1558033727.0,-2730.0,156.0,-32344.0,1558033727.0,979.0,-315.0,-718.0
mpu,,,,,,,,,1558133732.0,5666.0,-538.0,-24148.0,1558133732.0,1529.0,122.0,-1396.0
mpu,,,,,,,,,1558233734.0,5376.0,13748.0,-25010.0,1558233734.0,1685.0,438.0,-950.0
mpu,,,,,,,,,1558333752.0,6342.0,26442.0,-22532.0,1558333752.0,1590.0,-135.0,-493.0
mpu,,,,,,,,,1558433737.0,780.0,30066.0,-32768.0,1558433737.0,659.0,-293.0,-96.0
mpu,,,,,,,,,1558533736.0,2372.0,29674.0,-32768.0,1558533736.0,-1102.0,64.0,615.0
mpu,,,,,,,,,1558633736.0,2988.0,25006.0,-32768.0,1558633736.0,-2437.0,269.0,1260.0
mpu,,,,,,,,,1558733758.0,2474.0,15360.0,-28736.0,1558733758.0,-2074.0,187.0,1154.0
mpu,,,,,,,,,1558833734.0,3398.0,10044.0,-25984.0,1558833734.0,-877.0,-20.0,660.0
mpu,,,,,,,,,1558933731.0,2630.0,464.0,-31320.0,1558933731.0,523.0,-351.0,-232.0
mpu,,,,,,,,,1559033728.0,3288.0,-3278.0,-32768.0,1559033728.0,1354.0,-181.0,-1187.0
mpu,,,,,,,,,1559133751.0,1598.0,9968.0,-27968.0,1559133751.0,1608.0,398.0,-1270.0
mpu,,,,,,,,,1559233740.0,15094.0,18752.0,-24428.0,1559233740.0,1660.0,41.0,-642.0
mpu,,,,,,,,,1559333730.0,3298.0,29498.0,-30356.0,1559333730.0,1160.0,-261.0,-333.0
mpu,,,,,,,,,1559433735.0,-2248.0,32604.0,-32768.0,1559433735.0,-286.0,46.0,272.0
mpu,,,,,,,,,1559533747.0,-1180.0,24742.0,-32096.0,1559533747.0,-2081.0,149.0,1111.0
mpu,,,,,,,,,1559633751.0,3582.0,21346.0,-29332.0,1559633751.0,-2289.0,284.0,1253.0
mpu,,,,,,,,,1559733740.0,2198.0,11418.0,-27486.0,1559733740.0,-1567.0,43.0,871.0
mpu,,,,,,,,,1559833738.0,-52.0,2122.0,-27468.0,1559833738.0,-66.0,-74.0,169.0
mpu,,,,,,,,,1559933749.0,-2762.0,-572.0,-30518.0,1559933749.0,1088.0,-300.0,-849.0
mpu,,,,,,,,,1560033732.0,3320.0,1440.0,-27542.0,1560033732.0,1622.0,184.0,-1432.0
mpu,,,,,,,,,1560133741.0,9784.0,13402.0,-17508.0,1560133741.0,1681.0,419.0,-916.0
mpu,,,,,,,,,1560233735.0,5902.0,28192.0,-28554.0,1560233735.0,1527.0,-144.0,-442.0
mpu,,,,,,,,,1560333748.0,-2332.0,31418.0,-31242.0,1560333748.0,469.0,-288.0,-72.0
mpu,,,,,,,,,1560433762.0,-158.0,29166.0,-32768.0,1560433762.0,-1454.0,113.0,734.0
mpu,,,,,,,,,1560533737.0,4460.0,23446.0,-30134.0,1560533737.0,-2586.0,238.0,1349.0
mpu,,,,,,,,,1560633730.0,2504.0,15174.0,-26900.0,1560633730.0,-1929.0,150.0,1092.0
mpu,,,,,,,,,1560733743.0,2644.0,7958.0,-27052.0,1560733743.0,-654.0,-59.0,529.0
mpu,,,,,,,,,1560833735.0,1432.0,218.0,-32040.0,1560833735.0,727.0,-327.0,-446.0
mpu,,,,,,,,,1560933734.0,5610.0,-2508.0,-32768.0,1560933734.0,1463.0,-113.0,-1337.0
mpu,,,,,,,,,1561033758.0,4048.0,11426.0,-21046.0,1561033758.0,1629.0,548.0,-1157.0
mpu,,,,,,,,,1561133744.0,1688.0,21708.0,-24334.0,1561133744.0,1692.0,68.0,-583.0
mpu,,,,,,,,,1561233734.0,3224.0,28570.0,-30702.0,1561233734.0,1040.0,-408.0,-188.0
mpu,,,,,,,,,1561333751.0,360.0,31792.0,-32768.0,1561333751.0,-541.0,-109.0,355.0
mpu,,,,,,,,,1561433758.0,2410.0,24274.0,-32702.0,1561433758.0,-2202.0,404.0,1225.0
mpu,,,,,,,,,1561533750.0,3994.0,18644.0,-29194.0,1561533750.0,-2243.0,186.0,1288.0
mpu,,,,,,,,,1561633736.0,2800.0,11632.0,-27754.0,1561633736.0,-1373.0,67.0,783.0
mpu,,,,,,,,,1561733737.0,2780.0,2878.0,-30366.0,1561733737.0,112.0,-70.0,-9.0
mpu,,,,,,,,,1561833760.0,922.0,-1480.0,-26774.0,1561833760.0,1205.0,-267.0,-969.0
mpu,,,,,,,,,1561933738.0,1604.0,4590.0,-24162.0,1561933738.0,1699.0,201.0,-1223.0
mpu,,,,,,,,,1562033731.0,4278.0,14666.0,-25022.0,1562033731.0,1675.0,385.0,-761.0
mpu,,,,,,,,,1562133739.0,4684.0,26974.0,-26430.0,1562133739.0,1404.0,-229.0,-450.0
mpu,,,,,,,,,1562233769.0,-734.0,30132.0,-32768.0,1562233769.0,279.0,-268.0,-36.0
mpu,,,,,,,,,1562333728.0,-1796.0,28412.0,-32442.0,1562333728.0,-1605.0,-51.0,837.0
mpu,,,,,,,,,1562433730.0,3320.0,22462.0,-30578.0,1562433730.0,-2537.0,89.0,1388.0
mpu,,,,,,,,,1562533729.0,3864.0,13102.0,-27120.0,1562533729.0,-1811.0,263.0,1044.0
mpu,,,,,,,,,1562633736.0,4714.0,9494.0,-29044.0,1562633736.0,-512.0,103.0,452.0
mpu,,,,,,,,,1562733733.0,886.0,-1448.0,-31724.0,1562733733.0,878.0,-349.0,-421.0
mpu,,,,,,,,,1562833731.0,2912.0,-642.0,-32288.0,1562833731.0,1569.0,-80.0,-1314.0
mpu,,,,,,,,,1562933731.0,7188.0,11602.0,-20338.0,1562933731.0,1632.0,504.0,-1106.0
mpu,,,,,,,,,1563033731.0,6552.0,21904.0,-22282.0,1563033731.0,1646.0,-165.0,-581.0
mpu,,,,,,,,,1563133730.0,1224.0,29350.0,-32768.0,1563133730.0,926.0,-207.0,-218.0
mpu,,,,,,,,,1563233730.0,764.0,32767.0,-32768.0,1563233730.0,-814.0,-5.0,413.0
mpu,,,,,,,,,1563333726.0,3584.0,24508.0,-32238.0,1563333726.0,-2412.0,232.0,1337.0
mpu,,,,,,,,,1563433734.0,4586.0,18058.0,-29678.0,1563433734.0,-2164.0,152.0,1284.0
mpu,,,,,,,,,1563533731.0,4036.0,10468.0,-27810.0,1563533731.0,-1212.0,217.0,674.0
mpu,,,,,,,,,1563633731.0,-100.0,1650.0,-28712.0,1563633731.0,240.0,-178.0,-120.0
mpu,,,,,,,,,1563733732.0,3924.0,-724.0,-28830.0,1563733732.0,1311.0,-196.0,-1053.0
mpu,,,,,,,,,1563833733.0,734.0,2576.0,-31732.0,1563833733.0,1728.0,223.0,-1188.0
mpu,,,,,,,,,1563933728.0,8322.0,15330.0,-21006.0,1563933728.0,1698.0,300.0,-832.0
mpu,,,,,,,,,1564033731.0,3802.0,29506.0,-30040.0,1564033731.0,1301.0,-337.0,-441.0
mpu,,,,,,,,,1564133730.0,-266.0,31364.0,-32768.0,1564133730.0,120.0,-134.0,85.0
mpu,,,,,,,,,1564233727.0,-72.0,27282.0,-32738.0,1564233727.0,-1821.0,200.0,940.0
mpu,,,,,,,,,1564333727.0,2832.0,19780.0,-30238.0,1564333727.0,-2562.0,224.0,1425.0
mpu,,,,,,,,,1564433730.0,2080.0,12430.0,-26858.0,1564433730.0,-1751.0,190.0,978.0
mpu,,,,,,,,,1564533729.0,3428.0,6076.0,-27614.0,1564533729.0,-349.0,-94.0,326.0
mpu,,,,,,,,,1564633730.0,1006.0,-498.0,-31946.0,1564633730.0,1012.0,-337.0,-601.0
mpu,,,,,,,,,1564733732.0,4430.0,52.0,-26794.0,1564733732.0,1589.0,16.0,-1421.0
mpu,,,,,,,,,1564833731.0,6350.0,13288.0,-24748.0,1564833731.0,1678.0,400.0,-997.0
mpu,,,,,,,,,1564933729.0,3158.0,24734.0,-24510.0,1564933729.0,1567.0,-86.0,-552.0
mpu,,,,,,,,,1565033729.0,-1032.0,30094.0,-32358.0,1565033729.0,713.0,-299.0,-169.0
mpu,,,,,,,,,1565133732.0,754.0,30256.0,-32768.0,1565133732.0,-1067.0,30.0,581.0
mpu,,,,,,,,,1565233731.0,4056.0,25396.0,-31328.0,1565233731.0,-2464.0,188.0,1299.0
mpu,,,,,,,,,1565333730.0,2292.0,16750.0,-27844.0,1565333730.0,-2115.0,276.0,1106.0
mpu,,,,,,,,,1565433729.0,672.0,9294.0,-23854.0,1565433729.0,-995.0,-33.0,629.0
mpu,,,,,,,,,1565533730.0,1738.0,1206.0,-30478.0,1565533730.0,576.0,-195.0,-209.0
mpu,,,,,,,,,1565633735.0,4398.0,-2354.0,-32768.0,1565633735.0,1407.0,-225.0,-1136.0
mpu,,,,,,,,,1565733733.0,3162.0,6562.0,-22722.0,1565733733.0,1656.0,482.0,-1239.0
mpu,,,,,,,,,1565833739.0,9060.0,20826.0,-21500.0,1565833739.0,1646.0,197.0,-681.0
mpu,,,,,,,,,1565933731.0,3134.0,31512.0,-32470.0,1565933731.0,1295.0,-384.0,-303.0
mpu,,,,,,,,,1566033729.0,1534.0,31234.0,-32768.0,1566033729.0,-100.0,-107.0,182.0
mpu,,,,,,,,,1566133731.0,270.0,24810.0,-32768.0,1566133731.0,-2121.0,6.0,1054.0
mpu,,,,,,,,,1566233738.0,1294.0,19354.0,-32308.0,1566233738.0,-2403.0,230.0,1290.0
mpu,,,,,,,,,1566333723.0,2512.0,10904.0,-26966.0,1566333723.0,-1619.0,70.0,1018.0
mpu,,,,,,,,,1566433735.0,2008.0,5058.0,-27718.0,1566433735.0,-203.0,-129.0,294.0
mpu,,,,,,,,,1566533733.0,-2952.0,-902.0,-32768.0,1566533733.0,1037.0,-205.0,-781.0
mpu,,,,,,,,,1566633733.0,3622.0,1088.0,-24262.0,1566633733.0,1564.0,128.0,-1393.0
mpu,,,,,,,,,1566733732.0,5294.0,13204.0,-22186.0,1566733732.0,1770.0,435.0,-966.0
mpu,,,,,,,,,1566833743.0,5422.0,26740.0,-23602.0,1566833743.0,1556.0,-122.0,-513.0
mpu,,,,,,,,,1566933731.0,2150.0,30846.0,-32768.0,1566933731.0,696.0,-289.0,-141.0
mpu,,,,,,,,,1567033723.0,-3808.0,29980.0,-32768.0,1567033723.0,-1151.0,46.0,605.0
mpu,,,,,,,,,1567133729.0,2256.0,25792.0,-31910.0,1567133729.0,-2538.0,304.0,1338.0
mpu,,,,,,,,,1567233728.0,1790.0,16662.0,-25734.0,1567233728.0,-2135.0,113.0,1139.0
mpu,,,,,,,,,1567333724.0,-728.0,8622.0,-24808.0,1567333724.0,-880.0,-7.0,630.0
mpu,,,,,,,,,1567433731.0,2318.0,-304.0,-30692.0,1567433731.0,625.0,-332.0,-259.0
mpu,,,,,,,,,1567533727.0,2600.0,-2166.0,-32768.0,1567533727.0,1494.0,-84.0,-1233.0
mpu,,,,,,,,,1567633734.0,5912.0,9902.0,-23014.0,1567633734.0,1705.0,431.0,-1169.0
mpu,,,,,,,,,1567733731.0,9638.0,24236.0,-17068.0,1567733731.0,1642.0,129.0,-705.0
mpu,,,,,,,,,1567833723.0,256.0,30274.0,-31302.0,1567833723.0,1053.0,-345.0,-281.0
mpu,,,,,,,,,1567933731.0,1354.0,31444.0,-32768.0,1567933731.0,-482.0,-59.0,378.0
mpu,,,,,,,,,1568033722.0,786.0,26854.0,-32768.0,1568033722.0,-2234.0,142.0,1169.0
mpu,,,,,,,,,1568133724.0,3248.0,19276.0,-27762.0,1568133724.0,-2344.0,140.0,1252.0
mpu,,,,,,,,,1568233736.0,3230.0,11174.0,-27672.0,1568233736.0,-1386.0,79.0,794.0
mpu,,,,,,,,,1568333733.0,1122.0,3246.0,-30268.0,1568333733.0,144.0,-88.0,61.0
mpu,,,,,,,,,1568433732.0,-2144.0,-822.0,-27792.0,1568433732.0,1287.0,-219.0,-909.0
mpu,,,,,,,,,1568533730.0,2434.0,3460.0,-25260.0,1568533730.0,1655.0,188.0,-1281.0
mpu,,,,,,,,,1568633731.0,4408.0,15878.0,-22322.0,1568633731.0,1672.0,311.0,-875.0
mpu,,,,,,,,,1568733736.0,5172.0,26352.0,-27704.0,1568733736.0,1449.0,-321.0,-463.0
mpu,,,,,,,,,1568833734.0,-186.0,29958.0,-32768.0,1568833734.0,294.0,-184.0,10.0
mpu,,,,,,,,,1568933729.0,730.0,28184.0,-32768.0,1568933729.0,-1671.0,44.0,870.0
mpu,,,,,,,,,1569033727.0,2898.0,22548.0,-31664.0,1569033727.0,-2531.0,209.0,1392.0
mpu,,,,,,,,,1569133733.0,1408.0,13282.0,-27316.0,1569133733.0,-1842.0,233.0,1055.0
mpu,,,,,,,,,1569233727.0,3090.0,5744.0,-28696.0,1569233727.0,-467.0,-66.0,408.0
mpu,,,,,,,,,1569333728.0,494.0,58.0,-31930.0,1569333728.0,955.0,-254.0,-513.0
mpu,,,,,,,,,1569433737.0,5570.0,-650.0,-28058.0,1569433737.0,1618.0,-32.0,-1322.0
mpu,,,,,,,,,1569533730.0,8366.0,11780.0,-24638.0,1569533730.0,1659.0,428.0,-1064.0
mpu,,,,,,,,,1569633731.0,5394.0,22752.0,-25082.0,1569633731.0,1561.0,-95.0,-632.0
mpu,,,,,,,,,1569733728.0,644.0,30158.0,-32768.0,1569733728.0,822.0,-270.0,-197.0
mpu,,,,,,,,,1569833728.0,1872.0,32767.0,-32768.0,1569833728.0,-900.0,-49.0,459.0
mpu,,,,,,,,,1569933731.0,1078.0,27756.0,-27842.0,1569933731.0,-2545.0,242.0,1242.0
mpu,,,,,,,,,1570033729.0,1348.0,16872.0,-28950.0,1570033729.0,-2178.0,89.0,1233.0
mpu,,,,,,,,,1570133729.0,2858.0,10378.0,-26328.0,1570133729.0,-987.0,88.0,720.0
mpu,,,,,,,,,1570233729.0,1440.0,1008.0,-30408.0,1570233729.0,470.0,-229.0,-217.0
mpu,,,,,,,,,1570333729.0,3566.0,-4562.0,-32768.0,1570333729.0,1402.0,-208.0,-1154.0
mpu,,,,,,,,,1570433722.0,5610.0,10402.0,-20766.0,1570433722.0,1763.0,407.0,-1184.0
mpu,,,,,,,,,1570533725.0,4918.0,18528.0,-24132.0,1570533725.0,1722.0,211.0,-710.0
mpu,,,,,,,,,1570633728.0,1178.0,30746.0,-29896.0,1570633728.0,1220.0,-607.0,-354.0
mpu,,,,,,,,,1570733734.0,-826.0,32767.0,-32768.0,1570733734.0,-288.0,-57.0,297.0
mpu,,,,,,,,,1570833740.0,-3164.0,24770.0,-32496.0,1570833740.0,-2180.0,265.0,1189.0
mpu,,,,,,,,,1570933732.0,2896.0,19522.0,-29718.0,1570933732.0,-2358.0,283.0,1318.0
mpu,,,,,,,,,1571033734.0,1504.0,11652.0,-26732.0,1571033734.0,-1542.0,91.0,914.0
mpu,,,,,,,,,1571133727.0,2464.0,3048.0,-28206.0,1571133727.0,-40.0,-170.0,74.0
mpu,,,,,,,,,1571233729.0,584.0,-684.0,-26372.0,1571233729.0,1191.0,-201.0,-945.0
mpu,,,,,,,,,1571333734.0,2934.0,3016.0,-26532.0,1571333734.0,1744.0,235.0,-1297.0
mpu,,,,,,,,,1571433734.0,4380.0,14872.0,-21470.0,1571433734.0,1683.0,313.0,-839.0
mpu,,,,,,,,,1571533727.0,4202.0,27348.0,-25900.0,1571533727.0,1372.0,-214.0,-473.0
mpu,,,,,,,,,1571633726.0,-396.0,32568.0,-32768.0,1571633726.0,238.0,-126.0,54.0
mpu,,,,,,,,,1571733732.0,-888.0,27320.0,-32768.0,1571733732.0,-1794.0,-81.0,912.0
mpu,,,,,,,,,1571833729.0,4742.0,21398.0,-30264.0,1571833729.0,-2395.0,-1.0,1407.0
mpu,,,,,,,,,1571933730.0,2318.0,11318.0,-30944.0,1571933730.0,-1758.0,125.0,1235.0
mpu,,,,,,,,,1572033724.0,3782.0,7196.0,-29626.0,1572033724.0,-391.0,-61.0,393.0
mpu,,,,,,,,,1572133728.0,136.0,-946.0,-32028.0,1572133728.0,945.0,-200.0,-655.0
mpu,,,,,,,,,1572233728.0,3090.0,32.0,-31240.0,1572233728.0,1556.0,50.0,-1480.0
mpu,,,,,,,,,1572333733.0,7636.0,12402.0,-20284.0,1572333733.0,1642.0,504.0,-1105.0
mpu,,,,,,,,,1572433725.0,3486.0,28646.0,-23510.0,1572433725.0,1573.0,42.0,-631.0
mpu,,,,,,,,,1572533734.0,42.0,31334.0,-32768.0,1572533734.0,638.0,-483.0,-122.0
mpu,,,,,,,,,1572633732.0,2044.0,29526.0,-32768.0,1572633732.0,-1135.0,115.0,684.0
mpu,,,,,,,,,1572733732.0,2134.0,23970.0,-29686.0,1572733732.0,-2467.0,299.0,1339.0
mpu,,,,,,,,,1572833730.0,3112.0,16098.0,-28216.0,1572833730.0,-2077.0,69.0,1125.0
mpu,,,,,,,,,1572933730.0,1036.0,7326.0,-26610.0,1572933730.0,-943.0,62.0,547.0
mpu,,,,,,,,,1573033730.0,2930.0,876.0,-31290.0,1573033730.0,582.0,-202.0,-274.0
mpu,,,,,,,,,1573133721.0,5130.0,-3392.0,-32768.0,1573133721.0,1470.0,-133.0,-1228.0
mpu,,,,,,,,,1573233726.0,4108.0,7820.0,-27796.0,1573233726.0,1724.0,446.0,-1112.0
mpu,,,,,,,,,1573333725.0,7016.0,20080.0,-21628.0,1573333725.0,1746.0,185.0,-640.0
mpu,,,,,,,,,1573433731.0,1724.0,29266.0,-31646.0,1573433731.0,1103.0,-384.0,-271.0
mpu,,,,,,,,,1573533729.0,-1122.0,32290.0,-32768.0,1573533729.0,-567.0,-169.0,303.0
mpu,,,,,,,,,1573633733.0,-706.0,25060.0,-30778.0,1573633733.0,-2192.0,178.0,1202.0
mpu,,,,,,,,,1573733729.0,2320.0,19216.0,-30302.0,1573733729.0,-2291.0,292.0,1245.0
mpu,,,,,,,,,1573833728.0,3240.0,9184.0,-26730.0,1573833728.0,-1395.0,22.0,846.0
mpu,,,,,,,,,1573933728.0,2952.0,3588.0,-31024.0,1573933728.0,174.0,-94.0,27.0
mpu,,,,,,,,,1574033731.0,586.0,-2994.0,-26716.0,1574033731.0,1303.0,-221.0,-995.0
mpu,,,,,,,,,1574133728.0,1656.0,4336.0,-26472.0,1574133728.0,1642.0,147.0,-1341.0
mpu,,,,,,,,,1574233733.0,4202.0,16160.0,-23704.0,1574233733.0,1700.0,378.0,-854.0
mpu,,,,,,,,,1574333731.0,4164.0,28588.0,-31388.0,1574333731.0,1455.0,-328.0,-455.0
mpu,,,,,,,,,1574433725.0,-1446.0,32322.0,-32768.0,1574433725.0,137.0,-185.0,72.0
mpu,,,,,,,,,1574533727.0,-762.0,26980.0,-31054.0,1574533727.0,-1817.0,142.0,990.0
mpu,,,,,,,,,1574633730.0,2010.0,21046.0,-31470.0,1574633730.0,-2480.0,248.0,1363.0
mpu,,,,,,,,,1574733732.0,1872.0,11364.0,-27590.0,1574733732.0,-1719.0,62.0,1041.0
mpu,,,,,,,,,1574833723.0,4078.0,2586.0,-30042.0,1574833723.0,-384.0,-486.0,176.0
mpu,,,,,,,,,1574933730.0,-3608.0,2314.0,-31104.0,1574933730.0,914.0,-92.0,-1038.0
mpu,,,,,,,,,1575033734.0,6024.0,-922.0,-30444.0,1575033734.0,1999.0,658.0,-1369.0
mpu,,,,,,,,,1575133729.0,4570.0,16438.0,-14362.0,1575133729.0,2278.0,192.0,-1017.0
mpu,,,,,,,,,1575233728.0,4036.0,27932.0,-32768.0,1575233728.0,2116.0,-884.0,-777.0
mpu,,,,,,,,,1575333731.0,-5674.0,32767.0,-32768.0,1575333731.0,310.0,149.0,-92.0
mpu,,,,,,,,,1575433729.0,-1476.0,25816.0,-32768.0,1575433729.0,-2625.0,252.0,1692.0
mpu,,,,,,,,,1575533725.0,10964.0,25292.0,-31562.0,1575533725.0,-2699.0,325.0,1579.0
mpu,,,,,,,,,1575633731.0,-5438.0,6784.0,-25726.0,1575633731.0,-1696.0,470.0,793.0
mpu,,,,,,,,,1575733729.0,206.0,-8318.0,-32768.0,1575733729.0,40.0,-880.0,-350.0
mpu,,,,,,,,,1575833732.0,9016.0,-3108.0,-25714.0,1575833732.0,1860.0,769.0,-1642.0
mpu,,,,,,,,,1575933728.0,16768.0,15466.0,-19254.0,1575933728.0,2832.0,-218.0,-1081.0
mpu,,,,,,,,,1576033730.0,-910.0,32767.0,-32418.0,1576033730.0,1870.0,-619.0,-897.0
mpu,,,,,,,,,1576133732.0,2458.0,32767.0,-32768.0,1576133732.0,38.0,293.0,149.0
mpu,,,,,,,,,1576233731.0,1734.0,23620.0,-28610.0,1576233731.0,-3212.0,362.0,2115.0
mpu,,,,,,,,,1576333735.0,832.0,18518.0,-32768.0,1576333735.0,-2530.0,362.0,1860.0
mpu,,,,,,,,,1576433729.0,-2716.0,-5382.0,-32768.0,1576433729.0,-802.0,345.0,484.0
mpu,,,,,,,,,1576533728.0,-14892.0,-9800.0,-32768.0,1576533728.0,1280.0,-107.0,-1476.0
mpu,,,,,,,,,1576633723.0,7820.0,7856.0,-19888.0,1576633723.0,2975.0,359.0,-1647.0
mpu,,,,,,,,,1576733729.0,9472.0,32767.0,-24626.0,1576733729.0,2126.0,-1097.0,-859.0
mpu,,,,,,,,,1576833730.0,3712.0,32767.0,-32768.0,1576833730.0,189.0,297.0,45.0
mpu,,,,,,,,,1576933729.0,-3944.0,20378.0,-32768.0,1576933729.0,-3277.0,284.0,2101.0
mpu,,,,,,,,,1577033728.0,12052.0,13190.0,-32768.0,1577033728.0,-2719.0,-181.0,1725.0
mpu,,,,,,,,,1577133726.0,-10610.0,-8704.0,-32768.0,1577133726.0,-488.0,328.0,134.0
mpu,,,,,,,,,1577233736.0,-946.0,-13316.0,-32768.0,1577233736.0,1803.0,206.0,-1810.0
mpu,,,,,,,,,1577333729.0,21738.0,26872.0,-19474.0,1577333729.0,2912.0,-88.0,-1592.0
mpu,,,,,,,,,1577433730.0,1300.0,32767.0,-31102.0,1577433730.0,1667.0,-513.0,-580.0
mpu,,,,,,,,,1577533730.0,-6894.0,32767.0,-32768.0,1577533730.0,-1398.0,417.0,1012.0
mpu,,,,,,,,,1577633730.0,3452.0,27850.0,-31778.0,1577633730.0,-3486.0,217.0,2416.0
mpu,,,,,,,,,1577733731.0,722.0,-3840.0,-32768.0,1577733731.0,-1631.0,145.0,1042.0
mpu,,,,,,,,,1577833723.0,-13926.0,-17352.0,-30556.0,1577833723.0,1143.0,18.0,-1158.0
mpu,,,,,,,,,1577933728.0,-5436.0,-9926.0,-29274.0,1577933728.0,2706.0,331.0,-2237.0
mpu,,,,,,,,,1578033733.0,3602.0,32767.0,-26840.0,1578033733.0,2493.0,-612.0,-905.0
mpu,,,,,,,,,1578133726.0,-2738.0,32767.0,-32768.0,1578133726.0,-398.0,385.0,469.0
mpu,,,,,,,,,1578233728.0,-578.0,30266.0,-32768.0,1578233728.0,-3510.0,261.0,2304.0
mpu,,,,,,,,,1578333728.0,3744.0,160.0,-29974.0,1578333728.0,-2370.0,88.0,1510.0
mpu,,,,,,,,,1578433732.0,-7966.0,-12444.0,-32768.0,1578433732.0,748.0,181.0,-826.0
mpu,,,,,,,,,1578533721.0,9476.0,-11276.0,-20200.0,1578533721.0,2695.0,164.0,-2111.0
mpu,,,,,,,,,1578633734.0,8648.0,32767.0,-26048.0,1578633734.0,2539.0,-533.0,-1057.0
mpu,,,,,,,,,1578733732.0,4354.0,32767.0,-32768.0,1578733732.0,6.0,372.0,339.0
mpu,,,,,,,,,1578833723.0,210.0,32767.0,-32768.0,1578833723.0,-3297.0,314.0,2190.0
mpu,,,,,,,,,1578933729.0,3184.0,4420.0,-32768.0,1578933729.0,-2450.0,107.0,1674.0
mpu,,,,,,,,,1579033737.0,-8664.0,-15772.0,-32768.0,1579033737.0,571.0,-16.0,-713.0
mpu,,,,,,,,,1579133718.0,14636.0,-13356.0,-18540.0,1579133718.0,2664.0,164.0,-2173.0
mpu,,,,,,,,,1579233733.0,7840.0,32767.0,-26702.0,1579233733.0,2545.0,-467.0,-1285.0
mpu,,,,,,,,,1579333733.0,4240.0,32767.0,-32768.0,1579333733.0,-5.0,383.0,451.0
mpu,,,,,,,,,1579433733.0,-3388.0,32186.0,-32768.0,1579433733.0,-3425.0,350.0,2189.0
mpu,,,,,,,,,1579533722.0,2496.0,2288.0,-32768.0,1579533722.0,-2360.0,-30.0,1596.0
mpu,,,,,,,,,1579633746.0,-8602.0,-20494.0,-32768.0,1579633746.0,851.0,40.0,-902.0
mpu,,,,,,,,,1579733729.0,12562.0,-8850.0,-17436.0,1579733729.0,2676.0,240.0,-2196.0
mpu,,,,,,,,,1579833728.0,8132.0,32767.0,-32254.0,1579833728.0,2385.0,-611.0,-1125.0
mpu,,,,,,,,,1579933728.0,3682.0,32767.0,-32768.0,1579933728.0,-437.0,417.0,674.0
mpu,,,,,,,,,1580033723.0,-1076.0,32710.0,-32768.0,1580033723.0,-3483.0,402.0,2224.0
mpu,,,,,,,,,1580133735.0,4158.0,-5478.0,-32768.0,1580133735.0,-1976.0,-44.0,1272.0
mpu,,,,,,,,,1580233729.0,-13456.0,-17812.0,-32768.0,1580233729.0,1185.0,-63.0,-1237.0
mpu,,,,,,,,,1580333725.0,1286.0,-3036.0,-10054.0,1580333725.0,2846.0,452.0,-2226.0
mpu,,,,,,,,,1580433728.0,7608.0,32767.0,-32768.0,1580433728.0,2089.0,-796.0,-789.0
mpu,,,,,,,,,1580533736.0,-6928.0,32767.0,-32768.0,1580533736.0,-1147.0,538.0,947.0
mpu,,,,,,,,,1580633728.0,-1740.0,24124.0,-32768.0,1580633728.0,-3687.0,483.0,2475.0
mpu,,,,,,,,,1580733729.0,-2992.0,-14748.0,-32768.0,1580733729.0,-1441.0,-81.0,862.0
mpu,,,,,,,,,1580833731.0,-3444.0,-26362.0,-32768.0,1580833731.0,1872.0,62.0,-1845.0
mpu,,,,,,,,,1580933731.0,11838.0,18922.0,-1878.0,1580933731.0,3062.0,209.0,-2103.0
mpu,,,,,,,,,1581033733.0,5156.0,32767.0,-31736.0,1581033733.0,1512.0,-683.0,-353.0
mpu,,,,,,,,,1581133727.0,876.0,32767.0,-32768.0,1581133727.0,-2165.0,394.0,1575.0
mpu,,,,,,,,,1581233731.0,-1766.0,18300.0,-32768.0,1581233731.0,-3324.0,270.0,2318.0
mpu,,,,,,,,,1581333729.0,-8644.0,-24440.0,-32768.0,1581333729.0,-516.0,-145.0,51.0
mpu,,,,,,,,,1581433723.0,16504.0,-17186.0,-17690.0,1581433723.0,2341.0,199.0,-2288.0
mpu,,,,,,,,,1581533731.0,27060.0,32767.0,-18342.0,1581533731.0,2724.0,-442.0,-1481.0
mpu,,,,,,,,,1581633721.0,1690.0,32767.0,-32768.0,1581633721.0,465.0,206.0,174.0
mpu,,,,,,,,,1581733730.0,-9212.0,31840.0,-32768.0,1581733730.0,-3077.0,535.0,2193.0
mpu,,,,,,,,,1581833727.0,472.0,6380.0,-32768.0,1581833727.0,-2713.0,-39.0,1745.0
mpu,,,,,,,,,1581933728.0,-11852.0,-19318.0,-32768.0,1581933728.0,759.0,19.0,-903.0
mpu,,,,,,,,,1582033722.0,23062.0,-9410.0,-12648.0,1582033722.0,2832.0,74.0,-2337.0
mpu,,,,,,,,,1582133731.0,18766.0,32767.0,-32768.0,1582133731.0,2319.0,-380.0,-1059.0
mpu,,,,,,,,,1582233733.0,-10300.0,32767.0,-32768.0,1582233733.0,-860.0,425.0,976.0
mpu,,,,,,,,,1582333727.0,1698.0,32030.0,-32768.0,1582333727.0,-3502.0,158.0,2455.0
mpu,,,,,,,,,1582433728.0,-3222.0,-15974.0,-32768.0,1582433728.0,-1492.0,-25.0,938.0
mpu,,,,,,,,,1582533732.0,-7112.0,-23534.0,-32768.0,1582533732.0,1932.0,282.0,-1812.0
mpu,,,,,,,,,1582633729.0,12324.0,16112.0,-4696.0,1582633729.0,2715.0,142.0,-2006.0
mpu,,,,,,,,,1582733727.0,6596.0,32767.0,-32768.0,1582733727.0,1261.0,-575.0,-270.0
mpu,,,,,,,,,1582833732.0,-4490.0,32767.0,-32768.0,1582833732.0,-2232.0,654.0,1669.0
mpu,,,,,,,,,1582933730.0,-168.0,18780.0,-32768.0,1582933730.0,-3108.0,145.0,2119.0
mpu,,,,,,,,,1583033738.0,-13330.0,-27502.0,-32768.0,1583033738.0,-192.0,-80.0,-195.0
mpu,,,,,,,,,1583133728.0,22786.0,-17090.0,-30314.0,1583133728.0,2551.0,24.0,-2240.0
mpu,,,,,,,,,1583233725.0,25038.0,32767.0,-25706.0,1583233725.0,2543.0,-429.0,-1445.0
mpu,,,,,,,,,1583333731.0,6784.0,32767.0,-32768.0,1583333731.0,95.0,255.0,339.0
mpu,,,,,,,,,1583433733.0,148.0,29134.0,-32768.0,1583433733.0,-3149.0,416.0,2323.0
mpu,,,,,,,,,1583533743.0,2484.0,916.0,-32768.0,1583533743.0,-2247.0,114.0,1605.0
mpu,,,,,,,,,1583633729.0,-15140.0,-19400.0,-32768.0,1583633729.0,1086.0,-113.0,-1142.0
mpu,,,,,,,,,1583733727.0,5660.0,-7264.0,-7078.0,1583733727.0,2739.0,221.0,-2355.0
mpu,,,,,,,,,1583833733.0,6486.0,32767.0,-32768.0,1583833733.0,1897.0,-735.0,-837.0
mpu,,,,,,,,,1583933730.0,-4028.0,32767.0,-32768.0,1583933730.0,-1305.0,572.0,1185.0
mpu,,,,,,,,,1584033732.0,-5434.0,26478.0,-32768.0,1584033732.0,-3385.0,361.0,2432.0
mpu,,,,,,,,,1584133732.0,-5642.0,-20124.0,-32768.0,1584133732.0,-1092.0,-258.0,554.0
mpu,,,,,,,,,1584233728.0,3754.0,-23528.0,-32768.0,1584233728.0,2147.0,130.0,-2182.0
mpu,,,,,,,,,1584333729.0,16940.0,32767.0,-9710.0,1584333729.0,2746.0,136.0,-1902.0
mpu,,,,,,,,,1584433727.0,-10526.0,32767.0,-32768.0,1584433727.0,932.0,-307.0,-171.0
mpu,,,,,,,,,1584533735.0,-3284.0,32767.0,-32768.0,1584533735.0,-2775.0,450.0,2053.0
mpu,,,,,,,,,1584633722.0,-2092.0,11900.0,-32768.0,1584633722.0,-3014.0,109.0,1986.0
mpu,,,,,,,,,1584733729.0,-11536.0,-17702.0,-32768.0,1584733729.0,322.0,-97.0,-478.0
mpu,,,,,,,,,1584833731.0,23572.0,-15624.0,-17898.0,1584833731.0,2764.0,142.0,-2310.0
mpu,,,,,,,,,1584933726.0,12168.0,32767.0,-28320.0,1584933726.0,2248.0,-192.0,-1182.0
mpu,,,,,,,,,1585033739.0,-4136.0,32767.0,-32768.0,1585033739.0,-543.0,295.0,714.0
mpu,,,,,,,,,1585133732.0,-3416.0,31500.0,-32768.0,1585133732.0,-3323.0,178.0,2383.0
mpu,,,,,,,,,1585233734.0,1258.0,-10664.0,-32768.0,1585233734.0,-1759.0,-35.0,1061.0
mpu,,,,,,,,,1585333729.0,-19774.0,-23734.0,-32768.0,1585333729.0,1796.0,248.0,-1591.0
mpu,,,,,,,,,1585433729.0,7886.0,6026.0,228.0,1585433729.0,2810.0,219.0,-2076.0
mpu,,,,,,,,,1585533727.0,4140.0,32767.0,-31756.0,1585533727.0,1417.0,-781.0,-461.0
mpu,,,,,,,,,1585633731.0,-3130.0,32767.0,-32768.0,1585633731.0,-1915.0,640.0,1536.0
mpu,,,,,,,,,1585733732.0,-3354.0,22888.0,-32768.0,1585733732.0,-3274.0,205.0,2201.0
mpu,,,,,,,,,1585833730.0,-9676.0,-23728.0,-32768.0,1585833730.0,-502.0,-224.0,203.0
mpu,,,,,,,,,1585933722.0,18868.0,-22642.0,-23396.0,1585933722.0,2466.0,242.0,-2150.0
mpu,,,,,,,,,1586033730.0,23918.0,32767.0,-14412.0,1586033730.0,2573.0,-131.0,-1658.0
mpu,,,,,,,,,1586133729.0,1710.0,32767.0,-32768.0,1586133729.0,407.0,-157.0,53.0
mpu,,,,,,,,,1586233734.0,-3238.0,31956.0,-32768.0,1586233734.0,-3037.0,561.0,2159.0
mpu,,,,,,,,,1586333727.0,-258.0,6878.0,-32768.0,1586333727.0,-2631.0,58.0,1749.0
mpu,,,,,,,,,1586433728.0,-14360.0,-16944.0,-32768.0,1586433728.0,885.0,-9.0,-933.0
mpu,,,,,,,,,1586533727.0,16988.0,-12276.0,-11008.0,1586533727.0,2846.0,96.0,-2282.0
mpu,,,,,,,,,1586633735.0,9836.0,32767.0,-32768.0,1586633735.0,2149.0,-479.0,-1047.0
mpu,,,,,,,,,1586733732.0,-9776.0,32767.0,-32768.0,1586733732.0,-1082.0,635.0,995.0
mpu,,,,,,,,,1586833732.0,3004.0,28156.0,-32768.0,1586833732.0,-3510.0,242.0,2418.0
mpu,,,,,,,,,1586933731.0,-3084.0,-16960.0,-32768.0,1586933731.0,-1319.0,32.0,740.0
mpu,,,,,,,,,1587033732.0,-4542.0,-22396.0,-32768.0,1587033732.0,1999.0,132.0,-1902.0
mpu,,,,,,,,,1587133731.0,6108.0,14756.0,-3098.0,1587133731.0,2813.0,305.0,-1803.0
mpu,,,,,,,,,1587233732.0,-6324.0,32767.0,-31776.0,1587233732.0,1122.0,-672.0,-288.0
mpu,,,,,,,,,1587333728.0,-1526.0,32767.0,-32768.0,1587333728.0,-2458.0,600.0,1833.0
mpu,,,,,,,,,1587433728.0,-4702.0,13726.0,-32768.0,1587433728.0,-3046.0,294.0,2161.0
mpu,,,,,,,,,1587533730.0,-10644.0,-23308.0,-32768.0,1587533730.0,192.0,-308.0,-295.0
mpu,,,,,,,,,1587633739.0,20724.0,-19020.0,-28694.0,1587633739.0,2628.0,37.0,-2426.0
mpu,,,,,,,,,1587733736.0,18990.0,32767.0,-32768.0,1587733736.0,2386.0,-459.0,-1394.0
mpu,,,,,,,,,1587833725.0,-2364.0,32767.0,-32768.0,1587833725.0,-167.0,536.0,517.0
mpu,,,,,,,,,1587933723.0,794.0,28292.0,-32768.0,1587933723.0,-3510.0,375.0,2403.0
mpu,,,,,,,,,1588033720.0,5060.0,-3790.0,-32768.0,1588033720.0,-2094.0,-169.0,1381.0
mpu,,,,,,,,,1588133735.0,-19850.0,-25978.0,-32768.0,1588133735.0,1579.0,197.0,-1397.0
mpu,,,,,,,,,1588233733.0,6988.0,2614.0,-3624.0,1588233733.0,2784.0,176.0,-2172.0
mpu,,,,,,,,,1588333733.0,11062.0,32767.0,-32768.0,1588333733.0,1637.0,-652.0,-624.0
mpu,,,,,,,,,1588433734.0,-5140.0,32767.0,-32768.0,1588433734.0,-1706.0,584.0,1334.0
mpu,,,,,,,,,1588533726.0,-4268.0,25268.0,-32768.0,1588533726.0,-3407.0,151.0,2255.0
mpu,,,,,,,,,1588633727.0,-11106.0,-26706.0,-32768.0,1588633727.0,-557.0,-42.0,250.0
mpu,,,,,,,,,1588733731.0,7754.0,-18126.0,-32768.0,1588733731.0,2507.0,36.0,-2125.0
mpu,,,,,,,,,1588833731.0,13822.0,32767.0,-11940.0,1588833731.0,2705.0,-97.0,-1675.0
mpu,,,,,,,,,1588933733.0,-3300.0,32767.0,-32768.0,1588933733.0,407.0,-125.0,187.0
mpu,,,,,,,,,1589033730.0,-914.0,32767.0,-32768.0,1589033730.0,-2972.0,407.0,2129.0
mpu,,,,,,,,,1589133728.0,1272.0,4054.0,-32768.0,1589133728.0,-2658.0,211.0,1760.0
mpu,,,,,,,,,1589233727.0,-12838.0,-15940.0,-32768.0,1589233727.0,711.0,-232.0,-743.0
mpu,,,,,,,,,1589333727.0,21726.0,-12642.0,-19056.0,1589333727.0,2711.0,-33.0,-2367.0
mpu,,,,,,,,,1589433728.0,30822.0,32767.0,-32768.0,1589433728.0,2029.0,-399.0,-976.0
mpu,,,,,,,,,1589533737.0,-14926.0,32767.0,-32768.0,1589533737.0,-689.0,303.0,658.0
mpu,,,,,,,,,1589633735.0,-4538.0,26500.0,-32768.0,1589633735.0,-3402.0,227.0,2302.0
mpu,,,,,,,,,1589733728.0,-2954.0,-9814.0,-32768.0,1589733728.0,-1699.0,-112.0,971.0
mpu,,,,,,,,,1589833728.0,-18584.0,-25374.0,-32768.0,1589833728.0,1817.0,153.0,-1545.0
mpu,,,,,,,,,1589933730.0,6722.0,9904.0,942.0,1589933730.0,2811.0,410.0,-1877.0
mpu,,,,,,,,,1590033726.0,4816.0,32767.0,-28980.0,1590033726.0,1433.0,-759.0,-566.0
mpu,,,,,,,,,1590133732.0,5588.0,32767.0,-32768.0,1590133732.0,-1793.0,455.0,1434.0
mpu,,,,,,,,,1590233732.0,-378.0,24216.0,-32768.0,1590233732.0,-3328.0,210.0,2183.0
mpu,,,,,,,,,1590333731.0,-5884.0,-21274.0,-32768.0,1590333731.0,-529.0,-150.0,384.0
mpu,,,,,,,,,1590433727.0,13680.0,-20924.0,-28506.0,1590433727.0,2477.0,180.0,-2102.0
mpu,,,,,,,,,1590533731.0,14380.0,32767.0,-15694.0,1590533731.0,2620.0,-130.0,-1694.0
mpu,,,,,,,,,1590633729.0,-3008.0,32767.0,-32352.0,1590633729.0,677.0,53.0,-6.0
mpu,,,,,,,,,1590733731.0,-3274.0,32767.0,-32768.0,1590733731.0,-2738.0,379.0,1898.0
mpu,,,,,,,,,1590833727.0,-2778.0,13572.0,-32768.0,1590833727.0,-3005.0,4.0,1866.0
mpu,,,,,,,,,1590933721.0,-8588.0,-18192.0,-32768.0,1590933721.0,438.0,-38.0,-472.0
mpu,,,,,,,,,1591033729.0,20444.0,-13412.0,-26130.0,1591033729.0,2612.0,56.0,-2284.0
mpu,,,,,,,,,1591133734.0,32767.0,32767.0,-32768.0,1591133734.0,2308.0,-302.0,-1129.0
mpu,,,,,,,,,1591233729.0,3116.0,32767.0,-32768.0,1591233729.0,-86.0,227.0,417.0
mpu,,,,,,,,,1591333730.0,-5372.0,32767.0,-32768.0,1591333730.0,-3184.0,293.0,2227.0
mpu,,,,,,,,,1591433727.0,2524.0,-234.0,-32462.0,1591433727.0,-2147.0,187.0,1557.0
mpu,,,,,,,,,1591533730.0,-10898.0,-20392.0,-32768.0,1591533730.0,1212.0,-202.0,-1097.0
mpu,,,,,,,,,1591633727.0,12188.0,-5678.0,-10732.0,1591633727.0,2662.0,172.0,-2322.0
mpu,,,,,,,,,1591733730.0,5636.0,32767.0,-31448.0,1591733730.0,2050.0,-386.0,-882.0
mpu,,,,,,,,,1591833731.0,-1726.0,32767.0,-32768.0,1591833731.0,-1050.0,259.0,929.0
mpu,,,,,,,,,1591933731.0,708.0,29222.0,-32768.0,1591933731.0,-3435.0,303.0,2442.0
mpu,,,,,,,,,1592033728.0,874.0,-10036.0,-32768.0,1592033728.0,-1488.0,-41.0,918.0
mpu,,,,,,,,,1592133727.0,-16102.0,-23526.0,-32232.0,1592133727.0,1886.0,80.0,-1696.0
mpu,,,,,,,,,1592233727.0,3310.0,8152.0,-1234.0,1592233727.0,2661.0,327.0,-1982.0
mpu,,,,,,,,,1592333727.0,4656.0,32767.0,-29386.0,1592333727.0,1436.0,-620.0,-539.0
mpu,,,,,,,,,1592433728.0,-4566.0,32767.0,-32768.0,1592433728.0,-1892.0,568.0,1554.0
mpu,,,,,,,,,1592533726.0,-3478.0,21866.0,-32768.0,1592533726.0,-3237.0,336.0,2278.0
mpu,,,,,,,,,1592633735.0,-5822.0,-20124.0,-32768.0,1592633735.0,-784.0,-403.0,183.0
mpu,,,,,,,,,1592733730.0,2078.0,-23136.0,-32768.0,1592733730.0,2255.0,457.0,-2177.0
mpu,,,,,,,,,1592833731.0,18940.0,32767.0,-12040.0,1592833731.0,2656.0,106.0,-1700.0
mpu,,,,,,,,,1592933726.0,-1816.0,32767.0,-32768.0,1592933726.0,848.0,-460.0,-26.0
mpu,,,,,,,,,1593033731.0,-5106.0,32767.0,-32768.0,1593033731.0,-2642.0,483.0,1941.0
mpu,,,,,,,,,1593133730.0,-2390.0,13440.0,-32768.0,1593133730.0,-2902.0,54.0,1997.0
mpu,,,,,,,,,1593233728.0,-10080.0,-19838.0,-32768.0,1593233728.0,384.0,-136.0,-425.0
mpu,,,,,,,,,1593333731.0,24250.0,-17198.0,-22664.0,1593333731.0,2645.0,211.0,-2274.0
mpu,,,,,,,,,1593433738.0,15360.0,32767.0,-24318.0,1593433738.0,2319.0,-206.0,-1272.0
mpu,,,,,,,,,1593533730.0,-5322.0,32767.0,-32768.0,1593533730.0,-127.0,-22.0,461.0
mpu,,,,,,,,,1593633726.0,-1046.0,32767.0,-32768.0,1593633726.0,-3264.0,286.0,2321.0
mpu,,,,,,,,,1593733727.0,5470.0,-1208.0,-32768.0,1593733727.0,-2122.0,30.0,1517.0
mpu,,,,,,,,,1593833729.0,-9620.0,-19368.0,-32768.0,1593833729.0,1276.0,-30.0,-1163.0
mpu,,,,,,,,,1593933733.0,16186.0,-4282.0,-20348.0,1593933733.0,2607.0,60.0,-2296.0
mpu,,,,,,,,,1594033727.0,6764.0,32767.0,-29896.0,1594033727.0,1981.0,-546.0,-834.0
mpu,,,,,,,,,1594133730.0,-5750.0,32767.0,-32768.0,1594133730.0,-1008.0,333.0,893.0
mpu,,,,,,,,,1594233730.0,-4284.0,28902.0,-32768.0,1594233730.0,-3417.0,277.0,2398.0
mpu,,,,,,,,,1594333733.0,-202.0,-9546.0,-32768.0,1594333733.0,-1464.0,-90.0,922.0
mpu,,,,,,,,,1594433733.0,-17638.0,-25738.0,-32768.0,1594433733.0,1845.0,145.0,-1557.0
mpu,,,,,,,,,1594533732.0,-2122.0,7124.0,680.0,1594533732.0,2531.0,340.0,-2127.0
mpu,,,,,,,,,1594633729.0,6240.0,32767.0,-32322.0,1594633729.0,1610.0,-818.0,-584.0
mpu,,,,,,,,,1594733736.0,4794.0,32767.0,-32768.0,1594733736.0,-1818.0,490.0,1508.0
mpu,,,,,,,,,1594833727.0,504.0,25174.0,-32768.0,1594833727.0,-3332.0,399.0,2270.0
mpu,,,,,,,,,1594933730.0,-5660.0,-15082.0,-32768.0,1594933730.0,-687.0,-165.0,332.0
mpu,,,,,,,,,1595033735.0,5396.0,-26884.0,-27382.0,1595033735.0,2355.0,258.0,-2124.0
mpu,,,,,,,,,1595133728.0,6940.0,32767.0,-4994.0,1595133728.0,2632.0,217.0,-1717.0
mpu,,,,,,,,,1595233726.0,-2664.0,32767.0,-32768.0,1595233726.0,922.0,-470.0,-73.0
mpu,,,,,,,,,1595333730.0,-4184.0,32767.0,-32768.0,1595333730.0,-2613.0,331.0,1850.0
mpu,,,,,,,,,1595433731.0,-662.0,14266.0,-32768.0,1595433731.0,-2919.0,139.0,2082.0
mpu,,,,,,,,,1595533731.0,-7686.0,-22528.0,-32768.0,1595533731.0,139.0,-107.0,-332.0
mpu,,,,,,,,,1595633735.0,17092.0,-17536.0,-25474.0,1595633735.0,2508.0,131.0,-2215.0
mpu,,,,,,,,,1595733733.0,21388.0,32767.0,-23014.0,1595733733.0,2433.0,-153.0,-1271.0
mpu,,,,,,,,,1595833735.0,-2254.0,32767.0,-32768.0,1595833735.0,210.0,91.0,227.0
mpu,,,,,,,,,1595933730.0,-2614.0,31948.0,-32768.0,1595933730.0,-3037.0,379.0,2168.0
mpu,,,,,,,,,1596033730.0,-2990.0,9194.0,-32768.0,1596033730.0,-2504.0,141.0,1710.0
mpu,,,,,,,,,1596133728.0,-11138.0,-19736.0,-32768.0,1596133728.0,855.0,-108.0,-804.0
mpu,,,,,,,,,1596233731.0,29324.0,-10768.0,-25988.0,1596233731.0,2601.0,-21.0,-2231.0
mpu,,,,,,,,,1596333728.0,11370.0,32767.0,-25498.0,1596333728.0,2186.0,-298.0,-1169.0
mpu,,,,,,,,,1596433729.0,-4408.0,32767.0,-32768.0,1596433729.0,-434.0,159.0,620.0
mpu,,,,,,,,,1596533731.0,-2650.0,28696.0,-32768.0,1596533731.0,-3316.0,387.0,2352.0
mpu,,,,,,,,,1596633724.0,3814.0,-4396.0,-32768.0,1596633724.0,-1911.0,144.0,1284.0
mpu,,,,,,,,,1596733733.0,-9166.0,-19432.0,-32768.0,1596733733.0,1399.0,-198.0,-1141.0
mpu,,,,,,,,,1596833736.0,16564.0,-720.0,-16614.0,1596833736.0,2485.0,-43.0,-2305.0
mpu,,,,,,,,,1596933734.0,5404.0,32767.0,-26986.0,1596933734.0,1806.0,-91.0,-756.0
mpu,,,,,,,,,1597033726.0,5614.0,32767.0,-32768.0,1597033726.0,-981.0,222.0,857.0
mpu,,,,,,,,,1597133731.0,-3602.0,25550.0,-32768.0,1597133731.0,-3375.0,364.0,2285.0
mpu,,,,,,,,,1597233727.0,836.0,-4994.0,-32768.0,1597233727.0,-1517.0,43.0,982.0
mpu,,,,,,,,,1597333730.0,-9578.0,-23356.0,-32768.0,1597333730.0,1794.0,-211.0,-1496.0
mpu,,,,,,,,,1597433734.0,6092.0,8344.0,-2204.0,1597433734.0,2569.0,378.0,-2068.0
mpu,,,,,,,,,1597533729.0,4324.0,32767.0,-29142.0,1597533729.0,1762.0,-521.0,-763.0
mpu,,,,,,,,,1597633734.0,-10320.0,32767.0,-32768.0,1597633734.0,-1409.0,331.0,1232.0
mpu,,,,,,,,,1597733732.0,2296.0,26756.0,-32768.0,1597733732.0,-3522.0,413.0,2339.0
mpu,,,,,,,,,1597833724.0,-3852.0,-15686.0,-32768.0,1597833724.0,-1081.0,-44.0,594.0
mpu,,,,,,,,,1597933730.0,-4482.0,-23302.0,-32768.0,1597933730.0,1960.0,7.0,-1863.0
mpu,,,,,,,,,1598033726.0,9290.0,17944.0,-5150.0,1598033726.0,2700.0,330.0,-1786.0
mpu,,,,,,,,,1598133731.0,1446.0,32767.0,-30578.0,1598133731.0,1336.0,-667.0,-411.0
mpu,,,,,,,,,1598233722.0,-9042.0,32767.0,-32768.0,1598233722.0,-2047.0,458.0,1551.0
mpu,,,,,,,,,1598333728.0,-246.0,20556.0,-32768.0,1598333728.0,-3165.0,245.0,2291.0
mpu,,,,,,,,,1598433722.0,-6280.0,-17488.0,-32768.0,1598433722.0,-504.0,-96.0,170.0
mpu,,,,,,,,,1598533730.0,7958.0,-18428.0,-29786.0,1598533730.0,2198.0,48.0,-2147.0
mpu,,,,,,,,,1598633733.0,13980.0,32767.0,-10738.0,1598633733.0,2426.0,187.0,-1614.0
mpu,,,,,,,,,1598733727.0,-3060.0,32767.0,-28970.0,1598733727.0,813.0,-483.0,-30.0
mpu,,,,,,,,,1598833725.0,-11394.0,32767.0,-30626.0,1598833725.0,-2481.0,429.0,1868.0
mpu,,,,,,,,,1598933732.0,-986.0,15678.0,-32522.0,1598933732.0,-2893.0,238.0,2032.0
mpu,,,,,,,,,1599033728.0,-5552.0,-22344.0,-32768.0,1599033728.0,156.0,-150.0,-288.0
mpu,,,,,,,,,1599133728.0,15762.0,-15326.0,-26424.0,1599133728.0,2462.0,64.0,-2280.0
mpu,,,,,,,,,1599233733.0,19686.0,32767.0,-21150.0,1599233733.0,2446.0,-36.0,-1441.0
mpu,,,,,,,,,1599333729.0,-5376.0,32767.0,-32768.0,1599333729.0,349.0,-128.0,182.0
mpu,,,,,,,,,1599433731.0,-2218.0,32767.0,-32768.0,1599433731.0,-3086.0,400.0,2251.0
mpu,,,,,,,,,1599533734.0,-2032.0,398.0,-32768.0,1599533734.0,-2697.0,362.0,1926.0
mpu,,,,,,,,,1599633728.0,-1260.0,-9938.0,-32768.0,1599633728.0,614.0,-268.0,-628.0
mpu,,,,,,,,,1599733727.0,13834.0,-11088.0,-16116.0,1599733727.0,2459.0,-347.0,-2543.0
mpu,,,,,,,,,1599833730.0,2028.0,32767.0,-14456.0,1599833730.0,1994.0,-333.0,-1369.0
mpu,,,,,,,,,1599933734.0,-3894.0,32767.0,-32768.0,1599933734.0,-269.0,-159.0,605.0
mpu,,,,,,,,,1600033732.0,-3606.0,32767.0,-31950.0,1600033732.0,-3095.0,475.0,2537.0
mpu,,,,,,,,,1600133724.0,2566.0,-1204.0,-32768.0,1600133724.0,-1818.0,348.0,1461.0
mpu,,,,,,,,,1600233726.0,-8532.0,-19626.0,-32768.0,1600233726.0,1433.0,157.0,-1035.0
mpu,,,,,,,,,1600333732.0,22466.0,-3032.0,-17128.0,1600333732.0,2747.0,104.0,-2234.0
mpu,,,,,,,,,1600433726.0,10452.0,32767.0,-32298.0,1600433726.0,2073.0,-325.0,-871.0
mpu,,,,,,,,,1600533735.0,-4742.0,32767.0,-32768.0,1600533735.0,-985.0,247.0,931.0
mpu,,,,,,,,,1600633727.0,1238.0,26786.0,-32768.0,1600633727.0,-3395.0,425.0,2441.0
mpu,,,,,,,,,1600733732.0,128.0,-9836.0,-32768.0,1600733732.0,-1496.0,-21.0,958.0
mpu,,,,,,,,,1600833733.0,-18686.0,-21484.0,-32768.0,1600833733.0,1718.0,16.0,-1579.0
mpu,,,,,,,,,1600933731.0,8044.0,3768.0,-3634.0,1600933731.0,2587.0,159.0,-2114.0
mpu,,,,,,,,,1601033724.0,3334.0,32767.0,-30238.0,1601033724.0,1560.0,-560.0,-608.0
mpu,,,,,,,,,1601133735.0,-8750.0,32767.0,-32768.0,1601133735.0,-1584.0,446.0,1333.0
mpu,,,,,,,,,1601233729.0,994.0,28050.0,-32768.0,1601233729.0,-3262.0,353.0,2323.0
mpu,,,,,,,,,1601333726.0,-5440.0,-14740.0,-32768.0,1601333726.0,-970.0,-5.0,445.0
mpu,,,,,,,,,1601433729.0,-11134.0,-22452.0,-28914.0,1601433729.0,2022.0,90.0,-1872.0
mpu,,,,,,,,,1601533727.0,9710.0,19788.0,-2204.0,1601533727.0,2691.0,218.0,-1782.0
mpu,,,,,,,,,1601633731.0,782.0,32767.0,-27454.0,1601633731.0,1128.0,-694.0,-369.0
mpu,,,,,,,,,1601733731.0,-3018.0,32767.0,-32768.0,1601733731.0,-2157.0,403.0,1644.0
mpu,,,,,,,,,1601833728.0,-290.0,20982.0,-32768.0,1601833728.0,-3091.0,282.0,2202.0
mpu,,,,,,,,,1601933727.0,-7982.0,-20016.0,-32768.0,1601933727.0,-385.0,-88.0,139.0
mpu,,,,,,,,,1602033731.0,4616.0,-22670.0,-32768.0,1602033731.0,2272.0,59.0,-2087.0
mpu,,,,,,,,,1602133732.0,15510.0,32767.0,-9522.0,1602133732.0,2462.0,58.0,-1780.0
mpu,,,,,,,,,1602233728.0,-9158.0,32767.0,-32510.0,1602233728.0,716.0,-513.0,-11.0
mpu,,,,,,,,,1602333733.0,1324.0,32767.0,-32768.0,1602333733.0,-2560.0,485.0,2051.0
mpu,,,,,,,,,1602433734.0,-630.0,10730.0,-31104.0,1602433734.0,-2735.0,405.0,1937.0
mpu,,,,,,,,,1602533726.0,-9550.0,-19754.0,-32768.0,1602533726.0,187.0,-204.0,-307.0
mpu,,,,,,,,,1602633732.0,12802.0,-12188.0,-21478.0,1602633732.0,2487.0,8.0,-2209.0
mpu,,,,,,,,,1602733735.0,15784.0,32767.0,-15316.0,1602733735.0,2300.0,67.0,-1356.0
mpu,,,,,,,,,1602833729.0,-1724.0,32767.0,-32768.0,1602833729.0,156.0,-242.0,172.0
mpu,,,,,,,,,1602933730.0,1646.0,32767.0,-32768.0,1602933730.0,-2897.0,343.0,2186.0
mpu,,,,,,,,,1603033732.0,518.0,7602.0,-31656.0,1603033732.0,-2439.0,228.0,1801.0
mpu,,,,,,,,,1603133728.0,-9196.0,-22506.0,-32768.0,1603133728.0,604.0,-317.0,-725.0
mpu,,,,,,,,,1603233727.0,17540.0,-9416.0,-17480.0,1603233727.0,2464.0,108.0,-2343.0
mpu,,,,,,,,,1603333734.0,15140.0,32767.0,-23680.0,1603333734.0,2155.0,-147.0,-1224.0
mpu,,,,,,,,,1603433728.0,780.0,32767.0,-32768.0,1603433728.0,-110.0,-57.0,443.0
mpu,,,,,,,,,1603533729.0,3392.0,32767.0,-32768.0,1603533729.0,-3041.0,415.0,2402.0
mpu,,,,,,,,,1603633730.0,4454.0,-3230.0,-32768.0,1603633730.0,-2151.0,383.0,1464.0
mpu,,,,,,,,,1603733732.0,-15140.0,-12158.0,-29058.0,1603733732.0,1127.0,-343.0,-797.0
mpu,,,,,,,,,1603833734.0,10902.0,-10264.0,-17110.0,1603833734.0,2412.0,-49.0,-2558.0
mpu,,,,,,,,,1603933731.0,10942.0,32767.0,-25560.0,1603933731.0,1853.0,-475.0,-1014.0
mpu,,,,,,,,,1604033729.0,-3370.0,32767.0,-32768.0,1604033729.0,-474.0,354.0,856.0
mpu,,,,,,,,,1604133730.0,1462.0,29374.0,-32768.0,1604133730.0,-3136.0,61.0,2358.0
mpu,,,,,,,,,1604233731.0,3406.0,-1968.0,-31468.0,1604233731.0,-1799.0,83.0,1337.0
mpu,,,,,,,,,1604333731.0,-9890.0,-12598.0,-32768.0,1604333731.0,1403.0,183.0,-1083.0
mpu,,,,,,,,,1604433727.0,17058.0,2154.0,-19740.0,1604433727.0,2275.0,106.0,-2113.0
mpu,,,,,,,,,1604533726.0,3100.0,31432.0,-21754.0,1604533726.0,1430.0,300.0,-896.0
mpu,,,,,,,,,1604633726.0,-420.0,32767.0,-24180.0,1604633726.0,150.0,-495.0,-126.0
mpu,,,,,,,,,1604733728.0,-10564.0,32767.0,-32768.0,1604733728.0,-1733.0,223.0,1531.0
mpu,,,,,,,,,1604833732.0,5216.0,19424.0,-26590.0,1604833732.0,-2408.0,430.0,1715.0
mpu,,,,,,,,,1604933736.0,-6838.0,6740.0,-30500.0,1604933736.0,-1066.0,-145.0,1032.0
mpu,,,,,,,,,1605033726.0,-4140.0,-9184.0,-32464.0,1605033726.0,1478.0,-357.0,-1087.0
mpu,,,,,,,,,1605133727.0,17456.0,5312.0,-25826.0,1605133727.0,1908.0,-228.0,-1739.0
mpu,,,,,,,,,1605233728.0,3016.0,20952.0,-23380.0,1605233728.0,1293.0,641.0,-940.0
mpu,,,,,,,,,1605333735.0,6880.0,25976.0,-27174.0,1605333735.0,604.0,-276.0,-548.0
mpu,,,,,,,,,1605433728.0,-138.0,29250.0,-32768.0,1605433728.0,-181.0,64.0,94.0
mpu,,,,,,,,,1605533729.0,-2740.0,20178.0,-32768.0,1605533729.0,-1037.0,13.0,756.0
mpu,,,,,,,,,1605633727.0,3048.0,13752.0,-28120.0,1605633727.0,-1074.0,170.0,745.0
mpu,,,,,,,,,1605733731.0,6240.0,12766.0,-27200.0,1605733731.0,-861.0,-119.0,600.0
mpu,,,,,,,,,1605833726.0,4622.0,13354.0,-26526.0,1605833726.0,-613.0,41.0,327.0
mpu,,,,,,,,,1605933722.0,4462.0,16834.0,-24702.0,1605933722.0,-391.0,123.0,228.0
mpu,,,,,,,,,1606033728.0,6242.0,14544.0,-23256.0,1606033728.0,-453.0,3.0,376.0
mpu,,,,,,,,,1606133732.0,6430.0,13328.0,-23696.0,1606133732.0,-550.0,-28.0,524.0
mpu,,,,,,,,,1606233734.0,7382.0,11682.0,-23174.0,1606233734.0,-448.0,-109.0,454.0
mpu,,,,,,,,,1606333728.0,6740.0,8852.0,-23632.0,1606333728.0,-197.0,-39.0,183.0
mpu,,,,,,,,,1606433726.0,6894.0,8036.0,-24054.0,1606433726.0,156.0,-36.0,-135.0
mpu,,,,,,,,,1606533733.0,6050.0,8666.0,-23720.0,1606533733.0,467.0,86.0,-389.0
mpu,,,,,,,,,1606633730.0,5632.0,11244.0,-23628.0,1606633730.0,560.0,-41.0,-318.0
mpu,,,,,,,,,1606733737.0,5318.0,11960.0,-24576.0,1606733737.0,537.0,28.0,-231.0
mpu,,,,,,,,,1606833730.0,4424.0,12086.0,-27478.0,1606833730.0,586.0,60.0,-175.0
mpu,,,,,,,,,1606933732.0,4346.0,13122.0,-26656.0,1606933732.0,642.0,74.0,-266.0
mpu,,,,,,,,,1607033727.0,7370.0,13992.0,-23816.0,1607033727.0,633.0,3.0,-385.0
mpu,,,,,,,,,1607133735.0,5316.0,21414.0,-25876.0,1607133735.0,220.0,-9.0,-259.0
mpu,,,,,,,,,1607233728.0,4790.0,14570.0,-26378.0,1607233728.0,-231.0,-32.0,-63.0
mpu,,,,,,,,,1607333725.0,3632.0,11886.0,-28342.0,1607333725.0,-233.0,59.0,92.0
mpu,,,,,,,,,1607433736.0,4160.0,14584.0,-27782.0,1607433736.0,3.0,49.0,33.0
mpu,,,,,,,,,1607533731.0,5186.0,15976.0,-26220.0,1607533731.0,83.0,37.0,-23.0
mpu,,,,,,,,,1607633726.0,4492.0,14240.0,-27408.0,1607633726.0,-86.0,7.0,-2.0
mpu,,,,,,,,,1607733728.0,4492.0,14240.0,-27408.0,1607733728.0,-86.0,7.0,-2.0
mpu,,,,,,,,,1607833725.0,4060.0,13982.0,-27376.0,1607833725.0,-94.0,24.0,-67.0
mpu,,,,,,,,,1607933735.0,3898.0,14842.0,-26688.0,1607933735.0,-25.0,33.0,-123.0
mpu,,,,,,,,,1608033724.0,4040.0,15378.0,-26070.0,1608033724.0,-39.0,23.0,-91.0
mpu,,,,,,,,,1608133724.0,3762.0,14626.0,-26344.0,1608133724.0,-73.0,16.0,-19.0
mpu,,,,,,,,,1608233731.0,3744.0,14220.0,-26844.0,1608233731.0,-55.0,8.0,28.0
mpu,,,,,,,,,1608333733.0,4036.0,14596.0,-26632.0,1608333733.0,-8.0,8.0,37.0
mpu,,,,,,,,,1608433730.0,4360.0,14814.0,-26494.0,1608433730.0,4.0,7.0,17.0
mpu,,,,,,,,,1608533727.0,4284.0,14572.0,-26644.0,1608533727.0,-21.0,1.0,5.0
mpu,,,,,,,,,1608633725.0,3990.0,14652.0,-26390.0,1608633725.0,-26.0,6.0,-20.0
mpu,,,,,,,,,1608733731.0,3822.0,14562.0,-26422.0,1608733731.0,-25.0,4.0,-29.0
mpu,,,,,,,,,1608833736.0,3796.0,14644.0,-26266.0,1608833736.0,-13.0,9.0,-25.0
mpu,,,,,,,,,1608933726.0,3958.0,14688.0,-26162.0,1608933726.0,-15.0,8.0,-18.0
mpu,,,,,,,,,1609033730.0,3780.0,14752.0,-26352.0,1609033730.0,-18.0,9.0,-11.0
mpu,,,,,,,,,1609133730.0,3814.0,14496.0,-26122.0,1609133730.0,-26.0,5.0,1.0
mpu,,,,,,,,,1609233733.0,3888.0,14358.0,-26212.0,1609233733.0,-25.0,6.0,0.0
mpu,,,,,,,,,1609333733.0,3932.0,14516.0,-26378.0,1609333733.0,-9.0,6.0,-13.0
mpu,,,,,,,,,1609433732.0,4026.0,14816.0,-26382.0,1609433732.0,-8.0,7.0,-7.0
mpu,,,,,,,,,1609533727.0,4100.0,14548.0,-26660.0,1609533727.0,-6.0,3.0,-1.0
mpu,,,,,,,,,1609633730.0,3840.0,14642.0,-26154.0,1609633730.0,7.0,8.0,-4.0
mpu,,,,,,,,,1609733725.0,3714.0,14302.0,-26036.0,1609733725.0,-2.0,6.0,2.0
mpu,,,,,,,,,1609833730.0,3878.0,14536.0,-26246.0,1609833730.0,-1.0,5.0,7.0
mpu,,,,,,,,,1609933726.0,3654.0,14570.0,-26314.0,1609933726.0,14.0,5.0,-1.0
mpu,,,,,,,,,1610033730.0,3838.0,14646.0,-26126.0,1610033730.0,28.0,9.0,-10.0
mpu,,,,,,,,,1610133729.0,3920.0,14788.0,-25968.0,1610133729.0,17.0,10.0,-2.0
mpu,,,,,,,,,1610233730.0,3628.0,14374.0,-25988.0,1610233730.0,-5.0,0.0,8.0
mpu,,,,,,,,,1610333728.0,3682.0,14450.0,-26328.0,1610333728.0,2.0,3.0,-4.0
mpu,,,,,,,,,1610433724.0,3434.0,13830.0,-27048.0,1610433724.0,18.0,6.0,-12.0
mpu,,,,,,,,,1610533733.0,2328.0,11106.0,-29646.0,1610533733.0,161.0,6.0,-85.0
mpu,,,,,,,,,1610633734.0,1090.0,7938.0,-29584.0,1610633734.0,586.0,24.0,-340.0
mpu,,,,,,,,,1610733732.0,5080.0,9876.0,-23806.0,1610733732.0,915.0,11.0,-534.0
mpu,,,,,,,,,1610833725.0,9498.0,21320.0,-20426.0,1610833725.0,742.0,-116.0,-305.0
mpu,,,,,,,,,1610933728.0,1232.0,24958.0,-30434.0,1610933728.0,356.0,-15.0,46.0
mpu,,,,,,,,,1611033725.0,2588.0,22054.0,-32430.0,1611033725.0,-432.0,120.0,455.0
mpu,,,,,,,,,1611133728.0,4572.0,20968.0,-28118.0,1611133728.0,-1093.0,-61.0,772.0
mpu,,,,,,,,,1611233731.0,3804.0,24382.0,-23312.0,1611233731.0,-1567.0,83.0,1028.0
mpu,,,,,,,,,1611333729.0,3626.0,11876.0,-23966.0,1611333729.0,-1421.0,119.0,916.0
mpu,,,,,,,,,1611433726.0,5414.0,12324.0,-23980.0,1611433726.0,-768.0,-5.0,656.0
mpu,,,,,,,,,1611533728.0,5942.0,8802.0,-24114.0,1611533728.0,-24.0,-83.0,152.0
mpu,,,,,,,,,1611633732.0,5942.0,6714.0,-26632.0,1611633732.0,657.0,-164.0,-395.0
mpu,,,,,,,,,1611733730.0,3452.0,6680.0,-27424.0,1611733730.0,966.0,-138.0,-823.0
mpu,,,,,,,,,1611833726.0,4778.0,8866.0,-25776.0,1611833726.0,1068.0,51.0,-946.0
mpu,,,,,,,,,1611933722.0,5646.0,12188.0,-23638.0,1611933722.0,894.0,177.0,-905.0
mpu,,,,,,,,,1612033727.0,5252.0,17116.0,-24984.0,1612033727.0,733.0,254.0,-691.0
mpu,,,,,,,,,1612133736.0,2192.0,21322.0,-28896.0,1612133736.0,693.0,99.0,-418.0
mpu,,,,,,,,,1612233735.0,2454.0,22134.0,-31086.0,1612233735.0,379.0,-346.0,-112.0
mpu,,,,,,,,,1612333733.0,1014.0,22526.0,-32768.0,1612333733.0,-250.0,-147.0,209.0
mpu,,,,,,,,,1612433733.0,1912.0,20578.0,-31154.0,1612433733.0,-878.0,-15.0,656.0
mpu,,,,,,,,,1612533731.0,5278.0,18938.0,-28974.0,1612533731.0,-1237.0,181.0,940.0
mpu,,,,,,,,,1612633730.0,4392.0,16372.0,-24938.0,1612633730.0,-1309.0,292.0,775.0
mpu,,,,,,,,,1612733735.0,8140.0,12324.0,-26524.0,1612733735.0,-1207.0,-117.0,625.0
mpu,,,,,,,,,1612833729.0,3484.0,10436.0,-27736.0,1612833729.0,-761.0,143.0,481.0
mpu,,,,,,,,,1612933728.0,4476.0,9586.0,-23610.0,1612933728.0,85.0,-25.0,90.0
mpu,,,,,,,,,1613033730.0,4990.0,6244.0,-25898.0,1613033730.0,649.0,-236.0,-373.0
mpu,,,,,,,,,1613133732.0,5464.0,7214.0,-30764.0,1613133732.0,952.0,-136.0,-834.0
mpu,,,,,,,,,1613233736.0,3324.0,9334.0,-28724.0,1613233736.0,1102.0,249.0,-988.0
mpu,,,,,,,,,1613333732.0,1366.0,11968.0,-27306.0,1613333732.0,1056.0,351.0,-801.0
mpu,,,,,,,,,1613433727.0,5298.0,16718.0,-25504.0,1613433727.0,1068.0,117.0,-575.0
mpu,,,,,,,,,1613533729.0,2814.0,20426.0,-29074.0,1613533729.0,1092.0,-300.0,-416.0
mpu,,,,,,,,,1613633729.0,1044.0,21056.0,-30998.0,1613633729.0,828.0,-217.0,-194.0
mpu,,,,,,,,,1613733728.0,-2424.0,24330.0,-32768.0,1613733728.0,284.0,70.0,-5.0
mpu,,,,,,,,,1613833730.0,-736.0,25324.0,-32768.0,1613833730.0,-835.0,97.0,498.0
mpu,,,,,,,,,1613933739.0,7906.0,17718.0,-32080.0,1613933739.0,-1723.0,-73.0,938.0
mpu,,,,,,,,,1614033728.0,1906.0,16622.0,-25396.0,1614033728.0,-1524.0,542.0,691.0
mpu,,,,,,,,,1614133728.0,312.0,16414.0,-27732.0,1614133728.0,-1346.0,-25.0,742.0
mpu,,,,,,,,,1614233735.0,3214.0,13862.0,-26490.0,1614233735.0,-827.0,-181.0,613.0
mpu,,,,,,,,,1614333732.0,4954.0,7878.0,-25900.0,1614333732.0,-53.0,-199.0,345.0
mpu,,,,,,,,,1614433733.0,4862.0,5450.0,-28862.0,1614433733.0,481.0,-250.0,-340.0
mpu,,,,,,,,,1614533728.0,2242.0,6448.0,-30900.0,1614533728.0,794.0,12.0,-1161.0
mpu,,,,,,,,,1614633729.0,1210.0,8192.0,-29198.0,1614633729.0,1138.0,448.0,-1054.0
mpu,,,,,,,,,1614733729.0,3386.0,16144.0,-23190.0,1614733729.0,1400.0,332.0,-643.0
mpu,,,,,,,,,1614833724.0,4716.0,18248.0,-26012.0,1614833724.0,1357.0,-498.0,-540.0
mpu,,,,,,,,,1614933729.0,6022.0,21964.0,-30906.0,1614933729.0,1045.0,-273.0,-314.0
mpu,,,,,,,,,1615033727.0,2402.0,23808.0,-32768.0,1615033727.0,415.0,106.0,-106.0
mpu,,,,,,,,,1615133733.0,-5178.0,28532.0,-32768.0,1615133733.0,-733.0,32.0,453.0
mpu,,,,,,,,,1615233735.0,4142.0,19822.0,-27938.0,1615233735.0,-1966.0,-180.0,1087.0
mpu,,,,,,,,,1615333732.0,6816.0,17244.0,-32192.0,1615333732.0,-1797.0,-142.0,842.0
mpu,,,,,,,,,1615433732.0,-610.0,17856.0,-26440.0,1615433732.0,-1378.0,585.0,957.0
mpu,,,,,,,,,1615533723.0,4412.0,10408.0,-26740.0,1615533723.0,-723.0,-71.0,737.0
mpu,,,,,,,,,1615633726.0,4166.0,7876.0,-26560.0,1615633726.0,362.0,57.0,230.0
mpu,,,,,,,,,1615733737.0,1636.0,5672.0,-28892.0,1615733737.0,798.0,-202.0,-641.0
mpu,,,,,,,,,1615833733.0,1886.0,4910.0,-32768.0,1615833733.0,1056.0,189.0,-1385.0
mpu,,,,,,,,,1615933730.0,3062.0,12356.0,-27584.0,1615933730.0,1370.0,562.0,-883.0
mpu,,,,,,,,,1616033735.0,4204.0,14962.0,-24402.0,1616033735.0,1512.0,-230.0,-478.0
mpu,,,,,,,,,1616133734.0,5858.0,23904.0,-29606.0,1616133734.0,1123.0,-411.0,-365.0
mpu,,,,,,,,,1616233730.0,-3726.0,29484.0,-32750.0,1616233730.0,351.0,43.0,-35.0
mpu,,,,,,,,,1616333727.0,1124.0,25376.0,-32768.0,1616333727.0,-1206.0,12.0,681.0
mpu,,,,,,,,,1616433731.0,6026.0,25130.0,-28984.0,1616433731.0,-2040.0,119.0,1204.0
mpu,,,,,,,,,1616533727.0,2838.0,17320.0,-26384.0,1616533727.0,-1931.0,214.0,994.0
mpu,,,,,,,,,1616633731.0,898.0,13972.0,-24788.0,1616633731.0,-1283.0,114.0,834.0
mpu,,,,,,,,,1616733732.0,4506.0,7500.0,-27496.0,1616733732.0,-235.0,-228.0,343.0
mpu,,,,,,,,,1616833729.0,446.0,3040.0,-29132.0,1616833729.0,758.0,-62.0,-435.0
mpu,,,,,,,,,1616933735.0,4282.0,2962.0,-30054.0,1616933735.0,1162.0,-93.0,-1217.0
mpu,,,,,,,,,1617033735.0,3086.0,11330.0,-27122.0,1617033735.0,1373.0,511.0,-1140.0
mpu,,,,,,,,,1617133726.0,4500.0,14644.0,-23604.0,1617133726.0,1535.0,291.0,-595.0
mpu,,,,,,,,,1617233726.0,6570.0,24604.0,-27998.0,1617233726.0,1322.0,-362.0,-390.0
mpu,,,,,,,,,1617333735.0,558.0,29144.0,-32768.0,1617333735.0,435.0,-49.0,-50.0
mpu,,,,,,,,,1617433722.0,-2548.0,26976.0,-32768.0,1617433722.0,-1254.0,-14.0,735.0
mpu,,,,,,,,,1617533731.0,2458.0,22622.0,-30742.0,1617533731.0,-2272.0,89.0,1314.0
mpu,,,,,,,,,1617633730.0,4642.0,15804.0,-27756.0,1617633730.0,-1995.0,115.0,1096.0
mpu,,,,,,,,,1617733734.0,4584.0,10882.0,-27498.0,1617733734.0,-1201.0,94.0,755.0
mpu,,,,,,,,,1617833732.0,5456.0,6140.0,-27358.0,1617833732.0,53.0,-31.0,225.0
mpu,,,,,,,,,1617933734.0,198.0,2574.0,-32008.0,1617933734.0,966.0,-337.0,-657.0
mpu,,,,,,,,,1618033721.0,4948.0,3444.0,-25726.0,1618033721.0,1282.0,46.0,-1374.0
mpu,,,,,,,,,1618133732.0,9716.0,13504.0,-21690.0,1618133732.0,1486.0,438.0,-1002.0
mpu,,,,,,,,,1618233737.0,3828.0,20248.0,-23100.0,1618233737.0,1442.0,286.0,-526.0
mpu,,,,,,,,,1618333729.0,5648.0,27322.0,-32768.0,1618333729.0,1018.0,-306.0,-322.0
mpu,,,,,,,,,1618433730.0,2042.0,28178.0,-32768.0,1618433730.0,-56.0,-21.0,158.0
mpu,,,,,,,,,1618533726.0,1400.0,25966.0,-29344.0,1618533726.0,-1639.0,88.0,930.0
mpu,,,,,,,,,1618633735.0,4164.0,21428.0,-28900.0,1618633735.0,-2177.0,84.0,1241.0
mpu,,,,,,,,,1618733729.0,4504.0,15092.0,-25390.0,1618733729.0,-1784.0,60.0,902.0
mpu,,,,,,,,,1618833732.0,3166.0,10218.0,-25086.0,1618833732.0,-815.0,-52.0,493.0
mpu,,,,,,,,,1618933733.0,4116.0,4164.0,-29780.0,1618933733.0,479.0,-154.0,-66.0
mpu,,,,,,,,,1619033731.0,4820.0,2544.0,-31912.0,1619033731.0,1093.0,-257.0,-906.0
mpu,,,,,,,,,1619133732.0,1676.0,3442.0,-30810.0,1619133732.0,1378.0,286.0,-1226.0
mpu,,,,,,,,,1619233729.0,6118.0,12854.0,-25692.0,1619233729.0,1366.0,396.0,-829.0
mpu,,,,,,,,,1619333728.0,2098.0,24188.0,-23072.0,1619333728.0,1283.0,128.0,-532.0
mpu,,,,,,,,,1619433733.0,-1684.0,28740.0,-32768.0,1619433733.0,824.0,-424.0,-215.0
mpu,,,,,,,,,1619533728.0,28.0,29574.0,-32768.0,1619533728.0,-422.0,-63.0,348.0
mpu,,,,,,,,,1619633736.0,52.0,23744.0,-32768.0,1619633736.0,-1981.0,217.0,1176.0
mpu,,,,,,,,,1619733732.0,4126.0,16418.0,-27516.0,1619733732.0,-2105.0,128.0,1095.0
mpu,,,,,,,,,1619833732.0,9136.0,14236.0,-29152.0,1619833732.0,-1484.0,-256.0,782.0
mpu,,,,,,,,,1619933731.0,2754.0,8274.0,-26962.0,1619933731.0,-404.0,155.0,343.0
mpu,,,,,,,,,1620033724.0,2038.0,2122.0,-28696.0,1620033724.0,686.0,-225.0,-342.0
mpu,,,,,,,,,1620133736.0,-32.0,3408.0,-32768.0,1620133736.0,1262.0,-93.0,-1086.0
mpu,,,,,,,,,1620233724.0,4856.0,8034.0,-22954.0,1620233724.0,1445.0,370.0,-1146.0
mpu,,,,,,,,,1620333729.0,3756.0,14324.0,-23166.0,1620333729.0,1403.0,369.0,-753.0
mpu,,,,,,,,,1620433726.0,3486.0,24612.0,-26296.0,1620433726.0,1220.0,-240.0,-439.0
mpu,,,,,,,,,1620533735.0,1852.0,30408.0,-30560.0,1620533735.0,475.0,-148.0,-21.0
mpu,,,,,,,,,1620633731.0,-3860.0,26082.0,-31564.0,1620633731.0,-1146.0,70.0,701.0
mpu,,,,,,,,,1620733725.0,418.0,22876.0,-28472.0,1620733725.0,-2082.0,228.0,1270.0
mpu,,,,,,,,,1620833731.0,2652.0,14786.0,-26608.0,1620833731.0,-1988.0,177.0,999.0
mpu,,,,,,,,,1620933732.0,3094.0,12984.0,-25988.0,1620933732.0,-1200.0,-155.0,669.0
mpu,,,,,,,,,1621033728.0,3408.0,3446.0,-26956.0,1621033728.0,90.0,-58.0,84.0
mpu,,,,,,,,,1621133725.0,64.0,1998.0,-30176.0,1621133725.0,1058.0,-226.0,-684.0
mpu,,,,,,,,,1621233728.0,4034.0,2998.0,-27796.0,1621233728.0,1324.0,119.0,-1350.0
mpu,,,,,,,,,1621333734.0,6150.0,13048.0,-21228.0,1621333734.0,1427.0,371.0,-948.0
mpu,,,,,,,,,1621433736.0,2968.0,19972.0,-24080.0,1621433736.0,1368.0,100.0,-495.0
mpu,,,,,,,,,1621533728.0,5744.0,28628.0,-29788.0,1621533728.0,918.0,-328.0,-210.0
mpu,,,,,,,,,1621633730.0,-3050.0,30360.0,-32768.0,1621633730.0,-270.0,-16.0,225.0
mpu,,,,,,,,,1621733736.0,-968.0,24466.0,-32768.0,1621733736.0,-1822.0,145.0,1054.0
mpu,,,,,,,,,1621833727.0,1082.0,19228.0,-26420.0,1621833727.0,-2092.0,264.0,1185.0
mpu,,,,,,,,,1621933729.0,3936.0,13624.0,-27910.0,1621933729.0,-1594.0,-56.0,956.0
mpu,,,,,,,,,1622033728.0,1726.0,9090.0,-26000.0,1622033728.0,-483.0,-25.0,438.0
mpu,,,,,,,,,1622133730.0,3190.0,2658.0,-30866.0,1622133730.0,699.0,-284.0,-311.0
mpu,,,,,,,,,1622233729.0,6466.0,904.0,-32768.0,1622233729.0,1205.0,-178.0,-1217.0
mpu,,,,,,,,,1622333724.0,3688.0,8656.0,-21622.0,1622333724.0,1414.0,476.0,-1177.0
mpu,,,,,,,,,1622433740.0,7018.0,15672.0,-20264.0,1622433740.0,1425.0,285.0,-692.0
mpu,,,,,,,,,1622533728.0,5718.0,25376.0,-29736.0,1622533728.0,1224.0,-96.0,-418.0
mpu,,,,,,,,,1622633732.0,1528.0,28898.0,-32768.0,1622633732.0,390.0,-223.0,-18.0
mpu,,,,,,,,,1622733735.0,404.0,27298.0,-32768.0,1622733735.0,-1195.0,-36.0,702.0
mpu,,,,,,,,,1622833724.0,4374.0,23308.0,-27876.0,1622833724.0,-2218.0,210.0,1271.0
mpu,,,,,,,,,1622933731.0,2980.0,15798.0,-28090.0,1622933731.0,-1899.0,41.0,1089.0
mpu,,,,,,,,,1623033736.0,2864.0,12136.0,-25818.0,1623033736.0,-1071.0,-59.0,746.0
mpu,,,,,,,,,1623133728.0,2918.0,3732.0,-27918.0,1623133728.0,210.0,-104.0,84.0
mpu,,,,,,,,,1623233727.0,-1142.0,3672.0,-28688.0,1623233727.0,1085.0,-306.0,-760.0
mpu,,,,,,,,,1623333735.0,1490.0,2876.0,-26938.0,1623333735.0,1367.0,141.0,-1358.0
mpu,,,,,,,,,1623433730.0,6474.0,12946.0,-22518.0,1623433730.0,1411.0,447.0,-916.0
mpu,,,,,,,,,1623533730.0,4814.0,20450.0,-22738.0,1623533730.0,1291.0,172.0,-534.0
mpu,,,,,,,,,1623633727.0,2362.0,26680.0,-31180.0,1623633727.0,799.0,-389.0,-255.0
mpu,,,,,,,,,1623733733.0,1508.0,30056.0,-32768.0,1623733733.0,-365.0,-101.0,280.0
mpu,,,,,,,,,1623833730.0,2320.0,23974.0,-32768.0,1623833730.0,-1839.0,101.0,1081.0
mpu,,,,,,,,,1623933737.0,1088.0,17632.0,-28496.0,1623933737.0,-2040.0,270.0,1149.0
mpu,,,,,,,,,1624033726.0,3264.0,13258.0,-27534.0,1624033726.0,-1520.0,-98.0,924.0
mpu,,,,,,,,,1624133728.0,1686.0,8642.0,-27178.0,1624133728.0,-474.0,-19.0,409.0
mpu,,,,,,,,,1624233731.0,2266.0,2460.0,-29808.0,1624233731.0,679.0,-215.0,-362.0
mpu,,,,,,,,,1624333729.0,8564.0,1890.0,-31482.0,1624333729.0,1209.0,-196.0,-1197.0
mpu,,,,,,,,,1624433736.0,2612.0,8644.0,-25330.0,1624433736.0,1379.0,425.0,-1155.0
mpu,,,,,,,,,1624533723.0,2666.0,13800.0,-24196.0,1624533723.0,1384.0,324.0,-675.0
mpu,,,,,,,,,1624633725.0,5466.0,25046.0,-25644.0,1624633725.0,1167.0,-41.0,-395.0
mpu,,,,,,,,,1624733731.0,-1552.0,29702.0,-29948.0,1624733731.0,398.0,-272.0,-51.0
mpu,,,,,,,,,1624833737.0,-882.0,27296.0,-31216.0,1624833737.0,-1047.0,5.0,639.0
mpu,,,,,,,,,1624933731.0,3660.0,23372.0,-29294.0,1624933731.0,-2051.0,182.0,1184.0
mpu,,,,,,,,,1625033736.0,4066.0,16472.0,-27520.0,1625033736.0,-1902.0,144.0,1035.0
mpu,,,,,,,,,1625133735.0,2796.0,11688.0,-26184.0,1625133735.0,-1172.0,-108.0,724.0
mpu,,,,,,,,,1625233730.0,3868.0,3910.0,-28334.0,1625233730.0,4.0,-121.0,165.0
mpu,,,,,,,,,1625333730.0,960.0,2736.0,-31542.0,1625333730.0,969.0,-244.0,-582.0
mpu,,,,,,,,,1625433724.0,2672.0,2586.0,-27854.0,1625433724.0,1339.0,91.0,-1312.0
mpu,,,,,,,,,1625533732.0,5202.0,12110.0,-22396.0,1625533732.0,1447.0,446.0,-970.0
mpu,,,,,,,,,1625633734.0,4294.0,18542.0,-21646.0,1625633734.0,1309.0,103.0,-543.0
mpu,,,,,,,,,1625733735.0,366.0,26068.0,-30814.0,1625733735.0,922.0,-280.0,-379.0
mpu,,,,,,,,,1625833726.0,-1316.0,29980.0,-32768.0,1625833726.0,-23.0,-81.0,112.0
mpu,,,,,,,,,1625933732.0,1460.0,26016.0,-29786.0,1625933732.0,-1577.0,-7.0,854.0
mpu,,,,,,,,,1626033729.0,840.0,18660.0,-27966.0,1626033729.0,-2132.0,381.0,1216.0
mpu,,,,,,,,,1626133728.0,3138.0,15960.0,-24882.0,1626133728.0,-1678.0,96.0,963.0
mpu,,,,,,,,,1626233731.0,3196.0,10354.0,-26306.0,1626233731.0,-732.0,-303.0,594.0
mpu,,,,,,,,,1626333727.0,3876.0,4596.0,-29946.0,1626333727.0,509.0,-148.0,-64.0
mpu,,,,,,,,,1626433731.0,1266.0,2656.0,-29894.0,1626433731.0,1131.0,-128.0,-1031.0
mpu,,,,,,,,,1626533729.0,1246.0,4952.0,-26902.0,1626533729.0,1385.0,227.0,-1223.0
mpu,,,,,,,,,1626633730.0,6322.0,12778.0,-22054.0,1626633730.0,1338.0,295.0,-854.0
mpu,,,,,,,,,1626733729.0,3172.0,23588.0,-23992.0,1626733729.0,1213.0,86.0,-510.0
mpu,,,,,,,,,1626833730.0,1846.0,28422.0,-30700.0,1626833730.0,648.0,-282.0,-117.0
mpu,,,,,,,,,1626933730.0,-196.0,28842.0,-32768.0,1626933730.0,-645.0,-32.0,448.0
mpu,,,,,,,,,1627033727.0,1662.0,22570.0,-31286.0,1627033727.0,-1986.0,137.0,1090.0
mpu,,,,,,,,,1627133731.0,738.0,18440.0,-27384.0,1627133731.0,-2007.0,334.0,1041.0
mpu,,,,,,,,,1627233728.0,4196.0,12336.0,-26054.0,1627233728.0,-1401.0,-240.0,830.0
mpu,,,,,,,,,1627333730.0,3358.0,6742.0,-27170.0,1627333730.0,-237.0,-58.0,379.0
mpu,,,,,,,,,1627433732.0,2502.0,2034.0,-29394.0,1627433732.0,898.0,-281.0,-346.0
mpu,,,,,,,,,1627533730.0,4976.0,3358.0,-31684.0,1627533730.0,1298.0,-98.0,-1132.0
mpu,,,,,,,,,1627633730.0,5768.0,10364.0,-22114.0,1627633730.0,1356.0,366.0,-1099.0
mpu,,,,,,,,,1627733732.0,5642.0,16130.0,-24854.0,1627733732.0,1267.0,216.0,-731.0
mpu,,,,,,,,,1627833735.0,1834.0,25546.0,-28458.0,1627833735.0,1111.0,-108.0,-464.0
mpu,,,,,,,,,1627933729.0,2578.0,28302.0,-32768.0,1627933729.0,420.0,-170.0,-21.0
mpu,,,,,,,,,1628033737.0,-454.0,28060.0,-30676.0,1628033737.0,-1192.0,-11.0,664.0
mpu,,,,,,,,,1628133729.0,3812.0,21510.0,-28268.0,1628133729.0,-2179.0,195.0,1219.0
mpu,,,,,,,,,1628233727.0,3176.0,15254.0,-29506.0,1628233727.0,-2040.0,71.0,1126.0
mpu,,,,,,,,,1628333732.0,4528.0,9906.0,-25318.0,1628333732.0,-1072.0,-47.0,707.0
mpu,,,,,,,,,1628433730.0,3664.0,6882.0,-24634.0,1628433730.0,216.0,55.0,11.0
mpu,,,,,,,,,1628533731.0,368.0,2370.0,-28104.0,1628533731.0,978.0,-489.0,-761.0
mpu,,,,,,,,,1628633734.0,3664.0,2670.0,-28030.0,1628633734.0,1381.0,153.0,-1291.0
mpu,,,,,,,,,1628733733.0,3714.0,13488.0,-21482.0,1628733733.0,1465.0,400.0,-931.0
mpu,,,,,,,,,1628833730.0,1896.0,18914.0,-23812.0,1628833730.0,1389.0,65.0,-524.0
mpu,,,,,,,,,1628933737.0,3946.0,27554.0,-26380.0,1628933737.0,867.0,-306.0,-269.0
mpu,,,,,,,,,1629033724.0,-1326.0,30474.0,-32768.0,1629033724.0,-383.0,27.0,287.0
mpu,,,,,,,,,1629133725.0,16.0,23724.0,-30726.0,1629133725.0,-1954.0,22.0,1060.0
mpu,,,,,,,,,1629233734.0,3970.0,17860.0,-27876.0,1629233734.0,-2115.0,-23.0,1208.0
mpu,,,,,,,,,1629333729.0,2202.0,14068.0,-27022.0,1629333729.0,-1477.0,117.0,976.0
mpu,,,,,,,,,1629433732.0,2024.0,5580.0,-26512.0,1629433732.0,-500.0,-112.0,469.0
mpu,,,,,,,,,1629533731.0,2282.0,3274.0,-30054.0,1629533731.0,687.0,-195.0,-415.0
mpu,,,,,,,,,1629633727.0,3046.0,2218.0,-30192.0,1629633727.0,1281.0,-5.0,-1325.0
mpu,,,,,,,,,1629733734.0,6396.0,8770.0,-26120.0,1629733734.0,1505.0,435.0,-1125.0
mpu,,,,,,,,,1629833734.0,2762.0,16816.0,-22606.0,1629833734.0,1493.0,320.0,-709.0
mpu,,,,,,,,,1629933733.0,2764.0,27954.0,-30530.0,1629933733.0,1213.0,-181.0,-434.0
mpu,,,,,,,,,1630033728.0,-3594.0,29256.0,-32768.0,1630033728.0,300.0,-177.0,94.0
mpu,,,,,,,,,1630133730.0,-1306.0,25656.0,-32022.0,1630133730.0,-1446.0,90.0,851.0
mpu,,,,,,,,,1630233729.0,4118.0,20694.0,-31716.0,1630233729.0,-2349.0,-6.0,1270.0
mpu,,,,,,,,,1630333727.0,1594.0,16070.0,-24040.0,1630333727.0,-1893.0,79.0,1052.0
mpu,,,,,,,,,1630433733.0,3646.0,10510.0,-25608.0,1630433733.0,-856.0,-4.0,611.0
mpu,,,,,,,,,1630533726.0,1984.0,3856.0,-28966.0,1630533726.0,446.0,-64.0,-61.0
mpu,,,,,,,,,1630633729.0,6174.0,694.0,-30806.0,1630633729.0,1204.0,-272.0,-996.0
mpu,,,,,,,,,1630733727.0,1734.0,4984.0,-24592.0,1630733727.0,1480.0,250.0,-1276.0
mpu,,,,,,,,,1630833724.0,7932.0,15726.0,-23670.0,1630833724.0,1486.0,450.0,-802.0
mpu,,,,,,,,,1630933730.0,2298.0,22364.0,-25688.0,1630933730.0,1288.0,25.0,-480.0
mpu,,,,,,,,,1631033730.0,-564.0,29084.0,-32768.0,1631033730.0,567.0,-319.0,-121.0
mpu,,,,,,,,,1631133730.0,-1476.0,27744.0,-32768.0,1631133730.0,-939.0,-82.0,577.0
mpu,,,,,,,,,1631233732.0,686.0,24296.0,-30896.0,1631233732.0,-2228.0,123.0,1230.0
mpu,,,,,,,,,1631333728.0,1534.0,15620.0,-25478.0,1631333728.0,-2010.0,148.0,1117.0
mpu,,,,,,,,,1631433732.0,3362.0,11148.0,-26128.0,1631433732.0,-1228.0,16.0,737.0
mpu,,,,,,,,,1631533728.0,2844.0,3642.0,-27354.0,1631533728.0,93.0,-40.0,100.0
mpu,,,,,,,,,1631633724.0,-454.0,2688.0,-26528.0,1631633724.0,1080.0,-307.0,-747.0
mpu,,,,,,,,,1631733736.0,4508.0,2372.0,-26714.0,1631733736.0,1522.0,107.0,-1296.0
mpu,,,,,,,,,1631833736.0,6560.0,12310.0,-22308.0,1631833736.0,1526.0,360.0,-935.0
mpu,,,,,,,,,1631933725.0,3026.0,21124.0,-23816.0,1631933725.0,1334.0,173.0,-489.0
mpu,,,,,,,,,1632033726.0,1798.0,27480.0,-32768.0,1632033726.0,801.0,-233.0,-193.0
mpu,,,,,,,,,1632133723.0,1088.0,28170.0,-32768.0,1632133723.0,-489.0,-66.0,335.0
mpu,,,,,,,,,1632233735.0,-1008.0,23468.0,-32752.0,1632233735.0,-2009.0,99.0,1117.0
mpu,,,,,,,,,1632333730.0,3246.0,17838.0,-29090.0,1632333730.0,-2125.0,122.0,1153.0
mpu,,,,,,,,,1632433726.0,2816.0,11666.0,-27416.0,1632433726.0,-1464.0,111.0,888.0
mpu,,,,,,,,,1632533730.0,3708.0,6258.0,-26294.0,1632533730.0,-287.0,-86.0,326.0
mpu,,,,,,,,,1632633738.0,1996.0,1486.0,-29166.0,1632633738.0,844.0,-305.0,-505.0
mpu,,,,,,,,,1632733728.0,3766.0,1764.0,-29644.0,1632733728.0,1362.0,-118.0,-1292.0
mpu,,,,,,,,,1632833724.0,6558.0,9842.0,-25608.0,1632833724.0,1509.0,481.0,-1058.0
mpu,,,,,,,,,1632933731.0,2708.0,16334.0,-22144.0,1632933731.0,1454.0,234.0,-655.0
mpu,,,,,,,,,1633033727.0,4326.0,26994.0,-27060.0,1633033727.0,1140.0,-265.0,-435.0
mpu,,,,,,,,,1633133745.0,8.0,30162.0,-32768.0,1633133745.0,116.0,-97.0,73.0
mpu,,,,,,,,,1633233727.0,104.0,28994.0,-28164.0,1633233727.0,-1531.0,84.0,870.0
mpu,,,,,,,,,1633333728.0,5196.0,20060.0,-31316.0,1633333728.0,-2360.0,-100.0,1352.0
mpu,,,,,,,,,1633433725.0,3846.0,13726.0,-27854.0,1633433725.0,-1799.0,109.0,1052.0
mpu,,,,,,,,,1633533727.0,3212.0,9580.0,-26450.0,1633533727.0,-709.0,-58.0,555.0
mpu,,,,,,,,,1633633726.0,3396.0,2526.0,-28886.0,1633633726.0,515.0,-75.0,-200.0
mpu,,,,,,,,,1633733727.0,4738.0,516.0,-31450.0,1633733727.0,1235.0,-248.0,-1153.0
mpu,,,,,,,,,1633833736.0,1628.0,7080.0,-25022.0,1633833736.0,1472.0,433.0,-1249.0
mpu,,,,,,,,,1633933732.0,5180.0,15282.0,-24116.0,1633933732.0,1503.0,402.0,-738.0
mpu,,,,,,,,,1634033728.0,6792.0,25528.0,-26070.0,1634033728.0,1272.0,-132.0,-433.0
mpu,,,,,,,,,1634133732.0,2678.0,30520.0,-31376.0,1634133732.0,502.0,-192.0,-30.0
mpu,,,,,,,,,1634233729.0,-1864.0,27290.0,-30460.0,1634233729.0,-1175.0,52.0,671.0
mpu,,,,,,,,,1634333726.0,3710.0,23344.0,-29482.0,1634333726.0,-2323.0,114.0,1302.0
mpu,,,,,,,,,1634433734.0,3224.0,15024.0,-29218.0,1634433734.0,-2013.0,98.0,1072.0
mpu,,,,,,,,,1634533730.0,4336.0,10720.0,-26588.0,1634533730.0,-1088.0,-43.0,676.0
mpu,,,,,,,,,1634633726.0,4756.0,2252.0,-27396.0,1634633726.0,256.0,-144.0,0.0
mpu,,,,,,,,,1634733736.0,5248.0,-2246.0,-32768.0,1634733736.0,1098.0,-424.0,-1085.0
mpu,,,,,,,,,1634833736.0,5140.0,7996.0,-31024.0,1634833736.0,1585.0,670.0,-1487.0
mpu,,,,,,,,,1634933731.0,6270.0,15106.0,-22502.0,1634933731.0,2005.0,145.0,-753.0
mpu,,,,,,,,,1635033736.0,1828.0,25518.0,-28108.0,1635033736.0,1570.0,-731.0,-648.0
mpu,,,,,,,,,1635133736.0,2824.0,30516.0,-32768.0,1635133736.0,466.0,154.0,-34.0
mpu,,,,,,,,,1635233732.0,1446.0,27198.0,-32768.0,1635233732.0,-1800.0,45.0,1119.0
mpu,,,,,,,,,1635333738.0,10232.0,21610.0,-32768.0,1635333738.0,-2409.0,197.0,1491.0
mpu,,,,,,,,,1635433726.0,-4106.0,15258.0,-21576.0,1635433726.0,-1761.0,788.0,1037.0
mpu,,,,,,,,,1635533734.0,5662.0,4332.0,-32768.0,1635533734.0,-678.0,-823.0,414.0
mpu,,,,,,,,,1635633730.0,-1806.0,-5374.0,-32768.0,1635633730.0,880.0,-97.0,-827.0
mpu,,,,,,,,,1635733733.0,2752.0,4304.0,-29504.0,1635733733.0,1854.0,689.0,-1726.0
mpu,,,,,,,,,1635833732.0,15776.0,18118.0,-21126.0,1635833732.0,2485.0,-410.0,-911.0
mpu,,,,,,,,,1635933732.0,3510.0,31136.0,-31038.0,1635933732.0,1708.0,-278.0,-689.0
mpu,,,,,,,,,1636033731.0,-5924.0,32767.0,-32768.0,1636033731.0,-406.0,218.0,329.0
mpu,,,,,,,,,1636133729.0,5878.0,21124.0,-29230.0,1636133729.0,-3022.0,29.0,1789.0
mpu,,,,,,,,,1636233730.0,722.0,19586.0,-24784.0,1636233730.0,-2302.0,468.0,1458.0
mpu,,,,,,,,,1636333729.0,1080.0,3380.0,-32768.0,1636333729.0,-1078.0,-113.0,691.0
mpu,,,,,,,,,1636433727.0,-248.0,-5016.0,-32768.0,1636433727.0,775.0,-333.0,-701.0
mpu,,,,,,,,,1636533730.0,2916.0,-5918.0,-30144.0,1636533730.0,2018.0,523.0,-2008.0
mpu,,,,,,,,,1636633731.0,16384.0,28536.0,-26358.0,1636633731.0,2593.0,-229.0,-1129.0
mpu,,,,,,,,,1636733729.0,-194.0,32422.0,-32768.0,1636733729.0,1545.0,-23.0,-447.0
mpu,,,,,,,,,1636833733.0,-5186.0,32767.0,-32768.0,1636833733.0,-1339.0,8.0,837.0
mpu,,,,,,,,,1636933728.0,3606.0,22822.0,-28292.0,1636933728.0,-3282.0,375.0,2066.0
mpu,,,,,,,,,1637033729.0,-2528.0,11598.0,-28210.0,1637033729.0,-2036.0,263.0,1321.0
mpu,,,,,,,,,1637133731.0,-1088.0,-4720.0,-32768.0,1637133731.0,-64.0,-292.0,103.0
mpu,,,,,,,,,1637233729.0,-5442.0,-13528.0,-32768.0,1637233729.0,1711.0,90.0,-1682.0
mpu,,,,,,,,,1637333730.0,9242.0,15210.0,-14746.0,1637333730.0,2365.0,363.0,-1791.0
mpu,,,,,,,,,1637433727.0,7826.0,32767.0,-28680.0,1637433727.0,2227.0,-527.0,-614.0
mpu,,,,,,,,,1637533733.0,1692.0,32767.0,-32768.0,1637533733.0,-204.0,131.0,257.0
mpu,,,,,,,,,1637633730.0,126.0,23660.0,-30794.0,1637633730.0,-3285.0,349.0,2051.0
mpu,,,,,,,,,1637733726.0,3190.0,11474.0,-29532.0,1637733726.0,-2410.0,134.0,1600.0
mpu,,,,,,,,,1637833729.0,-5186.0,-2868.0,-32768.0,1637833729.0,-296.0,115.0,207.0
mpu,,,,,,,,,1637933729.0,574.0,-15512.0,-32768.0,1637933729.0,1606.0,-172.0,-1629.0
mpu,,,,,,,,,1638033724.0,3948.0,12924.0,-13798.0,1638033724.0,2326.0,487.0,-1786.0
mpu,,,,,,,,,1638133735.0,4260.0,32767.0,-26056.0,1638133735.0,2019.0,-672.0,-602.0
mpu,,,,,,,,,1638233731.0,-1474.0,32767.0,-32768.0,1638233731.0,-591.0,296.0,659.0
mpu,,,,,,,,,1638333730.0,498.0,27130.0,-31758.0,1638333730.0,-3334.0,163.0,1978.0
mpu,,,,,,,,,1638433726.0,2324.0,10740.0,-29230.0,1638433726.0,-2269.0,77.0,1482.0
mpu,,,,,,,,,1638533736.0,-6274.0,-10062.0,-32768.0,1638533736.0,203.0,37.0,-263.0
mpu,,,,,,,,,1638633731.0,2186.0,-13980.0,-32768.0,1638633731.0,2120.0,78.0,-1829.0
mpu,,,,,,,,,1638733731.0,12600.0,24942.0,-11148.0,1638733731.0,2442.0,373.0,-1472.0
mpu,,,,,,,,,1638833729.0,-110.0,32767.0,-30766.0,1638833729.0,1535.0,-449.0,-370.0
mpu,,,,,,,,,1638933729.0,-2742.0,32767.0,-32768.0,1638933729.0,-1527.0,209.0,1114.0
mpu,,,,,,,,,1639033729.0,3406.0,26934.0,-31840.0,1639033729.0,-3376.0,39.0,1988.0
mpu,,,,,,,,,1639133728.0,-980.0,624.0,-30726.0,1639133728.0,-1630.0,96.0,1146.0
mpu,,,,,,,,,1639233734.0,-5416.0,-16102.0,-32768.0,1639233734.0,1089.0,-88.0,-781.0
mpu,,,,,,,,,1639333728.0,13628.0,-3488.0,-22498.0,1639333728.0,2210.0,256.0,-1995.0
mpu,,,,,,,,,1639433731.0,18848.0,32767.0,-23966.0,1639433731.0,2333.0,-92.0,-1157.0
mpu,,,,,,,,,1639533728.0,1768.0,32767.0,-32768.0,1639533728.0,651.0,-51.0,74.0
mpu,,,,,,,,,1639633727.0,-6096.0,32767.0,-32768.0,1639633727.0,-2647.0,242.0,1681.0
mpu,,,,,,,,,1639733727.0,1440.0,18566.0,-32768.0,1639733727.0,-2877.0,93.0,1898.0
mpu,,,,,,,,,1639833730.0,-1646.0,-7124.0,-32768.0,1639833730.0,-500.0,-117.0,330.0
mpu,,,,,,,,,1639933723.0,-2568.0,-18712.0,-31940.0,1639933723.0,1872.0,146.0,-1682.0
mpu,,,,,,,,,1640033731.0,5312.0,9210.0,-8028.0,1640033731.0,2359.0,440.0,-1726.0
mpu,,,,,,,,,1640133726.0,3670.0,32767.0,-31846.0,1640133726.0,1842.0,-698.0,-724.0
mpu,,,,,,,,,1640233734.0,54.0,32767.0,-32768.0,1640233734.0,-944.0,234.0,958.0
mpu,,,,,,,,,1640333730.0,2392.0,26810.0,-32768.0,1640333730.0,-3395.0,352.0,2084.0
mpu,,,,,,,,,1640433726.0,2948.0,3216.0,-32520.0,1640433726.0,-1924.0,-74.0,1258.0
mpu,,,,,,,,,1640533735.0,-7266.0,-15212.0,-32768.0,1640533735.0,863.0,29.0,-868.0
mpu,,,,,,,,,1640633724.0,9626.0,-5886.0,-22180.0,1640633724.0,2323.0,213.0,-1962.0
mpu,,,,,,,,,1640733735.0,16410.0,32767.0,-22452.0,1640733735.0,2370.0,-26.0,-1176.0
mpu,,,,,,,,,1640833729.0,3020.0,32767.0,-32768.0,1640833729.0,576.0,-93.0,135.0
mpu,,,,,,,,,1640933729.0,-4856.0,32767.0,-32768.0,1640933729.0,-2700.0,393.0,1761.0
mpu,,,,,,,,,1641033730.0,454.0,16058.0,-32768.0,1641033730.0,-2854.0,37.0,1856.0
mpu,,,,,,,,,1641133731.0,-4080.0,-6952.0,-32768.0,1641133731.0,-425.0,-80.0,149.0
mpu,,,,,,,,,1641233730.0,1808.0,-19432.0,-31068.0,1641233730.0,1965.0,95.0,-1820.0
mpu,,,,,,,,,1641333732.0,5154.0,19532.0,-9464.0,1641333732.0,2357.0,481.0,-1571.0
mpu,,,,,,,,,1641433727.0,512.0,32767.0,-30184.0,1641433727.0,1569.0,-634.0,-469.0
mpu,,,,,,,,,1641533730.0,-1780.0,32767.0,-32768.0,1641533730.0,-1262.0,208.0,1122.0
mpu,,,,,,,,,1641633731.0,1724.0,26860.0,-32768.0,1641633731.0,-3205.0,293.0,2090.0
mpu,,,,,,,,,1641733731.0,2154.0,-1620.0,-32274.0,1641733731.0,-1533.0,71.0,1001.0
mpu,,,,,,,,,1641833731.0,-4206.0,-15016.0,-32768.0,1641833731.0,1117.0,-174.0,-1102.0
mpu,,,,,,,,,1641933737.0,14536.0,-3488.0,-20748.0,1641933737.0,2346.0,262.0,-1978.0
mpu,,,,,,,,,1642033736.0,15612.0,32767.0,-26150.0,1642033736.0,2145.0,-111.0,-1016.0
mpu,,,,,,,,,1642133730.0,3774.0,32767.0,-32768.0,1642133730.0,136.0,-42.0,334.0
mpu,,,,,,,,,1642233735.0,-4384.0,32767.0,-32768.0,1642233735.0,-2729.0,365.0,1863.0
mpu,,,,,,,,,1642333730.0,1126.0,14448.0,-32768.0,1642333730.0,-2624.0,-5.0,1709.0
mpu,,,,,,,,,1642433736.0,-3174.0,-12066.0,-32768.0,1642433736.0,-119.0,-26.0,-141.0
mpu,,,,,,,,,1642533731.0,838.0,-13698.0,-32768.0,1642533731.0,2165.0,23.0,-1946.0
mpu,,,,,,,,,1642633728.0,7868.0,28094.0,-7762.0,1642633728.0,2466.0,501.0,-1621.0
mpu,,,,,,,,,1642733728.0,362.0,32767.0,-27234.0,1642733728.0,1331.0,-633.0,-329.0
mpu,,,,,,,,,1642833730.0,-1086.0,32767.0,-32768.0,1642833730.0,-1656.0,414.0,1339.0
mpu,,,,,,,,,1642933735.0,2612.0,24846.0,-32768.0,1642933735.0,-3254.0,163.0,2124.0
mpu,,,,,,,,,1643033728.0,-794.0,-5728.0,-32506.0,1643033728.0,-1272.0,88.0,792.0
mpu,,,,,,,,,1643133733.0,-11034.0,-15506.0,-32768.0,1643133733.0,1472.0,-79.0,-1277.0
mpu,,,,,,,,,1643233730.0,8998.0,160.0,-11858.0,1643233730.0,2344.0,285.0,-1927.0
mpu,,,,,,,,,1643333730.0,4726.0,32767.0,-27638.0,1643333730.0,1965.0,-466.0,-985.0
mpu,,,,,,,,,1643433729.0,4312.0,32767.0,-32768.0,1643433729.0,-404.0,157.0,671.0
mpu,,,,,,,,,1643533732.0,2160.0,30940.0,-32768.0,1643533732.0,-3048.0,367.0,2040.0
mpu,,,,,,,,,1643633727.0,1748.0,8466.0,-30310.0,1643633727.0,-2187.0,116.0,1509.0
mpu,,,,,,,,,1643733725.0,-5468.0,-14650.0,-32768.0,1643733725.0,474.0,-130.0,-535.0
mpu,,,,,,,,,1643833732.0,12358.0,-13208.0,-32768.0,1643833732.0,2243.0,27.0,-2065.0
mpu,,,,,,,,,1643933724.0,10442.0,32767.0,-11306.0,1643933724.0,2390.0,390.0,-1316.0
mpu,,,,,,,,,1644033731.0,470.0,32767.0,-31874.0,1644033731.0,851.0,-349.0,-40.0
mpu,,,,,,,,,1644133730.0,-7422.0,32767.0,-32768.0,1644133730.0,-2267.0,369.0,1670.0
mpu,,,,,,,,,1644233725.0,818.0,19208.0,-32710.0,1644233725.0,-2978.0,89.0,1967.0
mpu,,,,,,,,,1644333731.0,-3126.0,-7904.0,-32768.0,1644333731.0,-693.0,-92.0,283.0
mpu,,,,,,,,,1644433728.0,-3136.0,-20302.0,-26460.0,1644433728.0,1922.0,68.0,-1713.0
mpu,,,,,,,,,1644533727.0,7822.0,14378.0,-8250.0,1644533727.0,2383.0,403.0,-1646.0
mpu,,,,,,,,,1644633727.0,7980.0,32767.0,-30684.0,1644633727.0,1526.0,-674.0,-663.0
mpu,,,,,,,,,1644733742.0,-922.0,32767.0,-32768.0,1644733742.0,-1184.0,260.0,1035.0
mpu,,,,,,,,,1644833733.0,1238.0,28634.0,-32768.0,1644833733.0,-3165.0,273.0,2147.0
mpu,,,,,,,,,1644933723.0,3960.0,-1834.0,-30440.0,1644933723.0,-1601.0,48.0,1001.0
mpu,,,,,,,,,1645033729.0,-7660.0,-12614.0,-32768.0,1645033729.0,1124.0,-73.0,-1096.0
mpu,,,,,,,,,1645133727.0,12520.0,-5622.0,-18352.0,1645133727.0,2324.0,94.0,-2039.0
mpu,,,,,,,,,1645233732.0,17298.0,32767.0,-26092.0,1645233732.0,2129.0,-145.0,-1129.0
mpu,,,,,,,,,1645333730.0,216.0,32767.0,-32768.0,1645333730.0,110.0,48.0,418.0
mpu,,,,,,,,,1645433732.0,-4820.0,32767.0,-32016.0,1645433732.0,-2927.0,383.0,1934.0
mpu,,,,,,,,,1645533730.0,618.0,9682.0,-29794.0,1645533730.0,-2518.0,189.0,1668.0
mpu,,,,,,,,,1645633729.0,-5750.0,-14182.0,-32768.0,1645633729.0,182.0,-317.0,-319.0
mpu,,,,,,,,,1645733728.0,11878.0,-14802.0,-29390.0,1645733728.0,2259.0,76.0,-2007.0
mpu,,,,,,,,,1645833724.0,11660.0,32767.0,-12656.0,1645833724.0,2471.0,320.0,-1472.0
mpu,,,,,,,,,1645933731.0,-1760.0,32767.0,-28148.0,1645933731.0,1087.0,-457.0,-297.0
mpu,,,,,,,,,1646033731.0,-12126.0,32767.0,-32768.0,1646033731.0,-2276.0,418.0,1717.0
mpu,,,,,,,,,1646133724.0,114.0,16372.0,-29822.0,1646133724.0,-3187.0,242.0,2060.0
mpu,,,,,,,,,1646233733.0,-5004.0,-8164.0,-32768.0,1646233733.0,-631.0,-50.0,365.0
mpu,,,,,,,,,1646333727.0,2176.0,-25048.0,-32768.0,1646333727.0,2000.0,-185.0,-1928.0
mpu,,,,,,,,,1646433729.0,6464.0,30300.0,-8240.0,1646433729.0,2592.0,672.0,-1705.0
mpu,,,,,,,,,1646533730.0,-4888.0,32767.0,-27218.0,1646533730.0,1450.0,-854.0,-482.0
mpu,,,,,,,,,1646633729.0,-3534.0,32767.0,-32768.0,1646633729.0,-1721.0,377.0,1442.0
mpu,,,,,,,,,1646733726.0,-848.0,21062.0,-32768.0,1646733726.0,-3323.0,302.0,2200.0
mpu,,,,,,,,,1646833730.0,-5616.0,-10306.0,-32768.0,1646833730.0,-923.0,23.0,474.0
mpu,,,,,,,,,1646933728.0,-4828.0,-20814.0,-32768.0,1646933728.0,1885.0,116.0,-1728.0
mpu,,,,,,,,,1647033724.0,7168.0,15820.0,-2544.0,1647033724.0,2717.0,412.0,-1757.0
mpu,,,,,,,,,1647133731.0,2130.0,32767.0,-29462.0,1647133731.0,1526.0,-876.0,-592.0
mpu,,,,,,,,,1647233727.0,-11366.0,32767.0,-32768.0,1647233727.0,-1700.0,483.0,1394.0
mpu,,,,,,,,,1647333730.0,488.0,24130.0,-32768.0,1647333730.0,-3425.0,133.0,2216.0
mpu,,,,,,,,,1647433734.0,-4830.0,-12618.0,-32768.0,1647433734.0,-1103.0,69.0,546.0
mpu,,,,,,,,,1647533733.0,-6622.0,-21134.0,-32684.0,1647533733.0,1902.0,152.0,-1761.0
mpu,,,,,,,,,1647633733.0,7442.0,13168.0,-4544.0,1647633733.0,2676.0,409.0,-1721.0
mpu,,,,,,,,,1647733730.0,2368.0,32767.0,-27774.0,1647733730.0,1470.0,-782.0,-513.0
mpu,,,,,,,,,1647833729.0,692.0,32767.0,-32768.0,1647833729.0,-1654.0,467.0,1431.0
mpu,,,,,,,,,1647933732.0,-2520.0,24900.0,-30600.0,1647933732.0,-3317.0,130.0,2217.0
mpu,,,,,,,,,1648033729.0,-3496.0,-13078.0,-32768.0,1648033729.0,-978.0,1.0,423.0
mpu,,,,,,,,,1648133729.0,-9730.0,-21324.0,-26686.0,1648133729.0,2011.0,429.0,-1757.0
mpu,,,,,,,,,1648233732.0,11054.0,15144.0,-4394.0,1648233732.0,2537.0,198.0,-1690.0
mpu,,,,,,,,,1648333730.0,3306.0,32767.0,-28368.0,1648333730.0,1365.0,-705.0,-448.0
mpu,,,,,,,,,1648433731.0,-3358.0,32767.0,-32768.0,1648433731.0,-1686.0,388.0,1417.0
mpu,,,,,,,,,1648533727.0,-490.0,23250.0,-32768.0,1648533727.0,-3208.0,212.0,2179.0
mpu,,,,,,,,,1648633735.0,-4040.0,-10176.0,-32768.0,1648633735.0,-888.0,48.0,551.0
mpu,,,,,,,,,1648733730.0,-4860.0,-21236.0,-26488.0,1648733730.0,2051.0,60.0,-1780.0
mpu,,,,,,,,,1648833727.0,1974.0,12684.0,-7602.0,1648833727.0,2517.0,346.0,-1769.0
mpu,,,,,,,,,1648933732.0,2654.0,32767.0,-25848.0,1648933732.0,1410.0,-778.0,-549.0
mpu,,,,,,,,,1649033733.0,-332.0,32767.0,-32768.0,1649033733.0,-1769.0,490.0,1473.0
mpu,,,,,,,,,1649133734.0,-3828.0,24396.0,-32256.0,1649133734.0,-3303.0,181.0,2139.0
mpu,,,,,,,,,1649233730.0,-5000.0,-10350.0,-32768.0,1649233730.0,-964.0,-53.0,488.0
mpu,,,,,,,,,1649333728.0,1780.0,-24378.0,-32768.0,1649333728.0,2051.0,33.0,-1912.0
mpu,,,,,,,,,1649433729.0,8298.0,16576.0,-2746.0,1649433729.0,2569.0,468.0,-1797.0
mpu,,,,,,,,,1649533726.0,1582.0,32767.0,-27430.0,1649533726.0,1406.0,-775.0,-459.0
mpu,,,,,,,,,1649633732.0,-5160.0,32767.0,-32768.0,1649633732.0,-1803.0,522.0,1599.0
mpu,,,,,,,,,1649733735.0,446.0,21694.0,-32768.0,1649733735.0,-3217.0,177.0,2200.0
mpu,,,,,,,,,1649833723.0,-5342.0,-12238.0,-32768.0,1649833723.0,-875.0,3.0,338.0
mpu,,,,,,,,,1649933725.0,3454.0,-24624.0,-32768.0,1649933725.0,1985.0,35.0,-1987.0
mpu,,,,,,,,,1650033724.0,6768.0,24524.0,-3940.0,1650033724.0,2655.0,518.0,-1657.0
mpu,,,,,,,,,1650133727.0,-938.0,32767.0,-29756.0,1650133727.0,1255.0,-805.0,-375.0
mpu,,,,,,,,,1650233729.0,-5654.0,32767.0,-32768.0,1650233729.0,-2001.0,466.0,1621.0
mpu,,,,,,,,,1650333732.0,470.0,22016.0,-32768.0,1650333732.0,-3242.0,130.0,2198.0
mpu,,,,,,,,,1650433728.0,-7326.0,-13520.0,-32768.0,1650433728.0,-580.0,7.0,142.0
mpu,,,,,,,,,1650533732.0,-7934.0,-22422.0,-19730.0,1650533732.0,2253.0,185.0,-2016.0
mpu,,,,,,,,,1650633732.0,10232.0,27326.0,-1722.0,1650633732.0,2288.0,124.0,-1535.0
mpu,,,,,,,,,1650733736.0,-2604.0,32767.0,-32768.0,1650733736.0,1013.0,-712.0,-250.0
mpu,,,,,,,,,1650833725.0,-6932.0,32767.0,-28300.0,1650833725.0,-2270.0,408.0,1840.0
mpu,,,,,,,,,1650933728.0,-2000.0,15912.0,-31268.0,1650933728.0,-2853.0,407.0,2035.0
mpu,,,,,,,,,1651033730.0,-8230.0,-14476.0,-32768.0,1651033730.0,-181.0,-184.0,-39.0
mpu,,,,,,,,,1651133722.0,11834.0,-17232.0,-25186.0,1651133722.0,2389.0,135.0,-2131.0
mpu,,,,,,,,,1651233722.0,13454.0,32767.0,-8698.0,1651233722.0,2375.0,331.0,-1457.0
mpu,,,,,,,,,1651333727.0,-4016.0,32767.0,-30860.0,1651333727.0,669.0,-517.0,-71.0
mpu,,,,,,,,,1651433724.0,-5730.0,32767.0,-32768.0,1651433724.0,-2430.0,298.0,1898.0
mpu,,,,,,,,,1651533737.0,1500.0,10412.0,-32768.0,1651533737.0,-2827.0,249.0,1950.0
mpu,,,,,,,,,1651633738.0,-10096.0,-15716.0,-32768.0,1651633738.0,8.0,-94.0,-231.0
mpu,,,,,,,,,1651733725.0,13994.0,-19910.0,-31408.0,1651733725.0,2362.0,-76.0,-2308.0
mpu,,,,,,,,,1651833727.0,18812.0,32767.0,-16686.0,1651833727.0,2485.0,209.0,-1382.0
mpu,,,,,,,,,1651933732.0,-3958.0,32767.0,-32768.0,1651933732.0,441.0,-265.0,102.0
mpu,,,,,,,,,1652033723.0,-11044.0,32767.0,-28956.0,1652033723.0,-2769.0,256.0,2048.0
mpu,,,,,,,,,1652133732.0,208.0,9824.0,-31332.0,1652133732.0,-2741.0,138.0,1851.0
mpu,,,,,,,,,1652233728.0,-9066.0,-17276.0,-32768.0,1652233728.0,346.0,-24.0,-357.0
mpu,,,,,,,,,1652333732.0,23910.0,-19306.0,-30686.0,1652333732.0,2491.0,44.0,-2236.0
mpu,,,,,,,,,1652433728.0,17716.0,32767.0,-19498.0,1652433728.0,2350.0,133.0,-1318.0
mpu,,,,,,,,,1652533735.0,1540.0,32767.0,-32768.0,1652533735.0,236.0,-260.0,193.0
mpu,,,,,,,,,1652633732.0,-2944.0,32767.0,-32768.0,1652633732.0,-2876.0,363.0,2217.0
mpu,,,,,,,,,1652733724.0,-1032.0,6108.0,-32768.0,1652733724.0,-2448.0,231.0,1769.0
mpu,,,,,,,,,1652833730.0,-8194.0,-17800.0,-32768.0,1652833730.0,562.0,-79.0,-702.0
mpu,,,,,,,,,1652933732.0,22466.0,-18838.0,-32768.0,1652933732.0,2411.0,-114.0,-2308.0
mpu,,,,,,,,,1653033731.0,15476.0,32767.0,-23960.0,1653033731.0,2239.0,30.0,-1159.0
mpu,,,,,,,,,1653133731.0,-1182.0,32767.0,-32768.0,1653133731.0,114.0,-78.0,307.0
mpu,,,,,,,,,1653233733.0,-1798.0,32218.0,-32768.0,1653233733.0,-3040.0,334.0,2262.0
mpu,,,,,,,,,1653333729.0,3578.0,4768.0,-31910.0,1653333729.0,-2283.0,119.0,1632.0
mpu,,,,,,,,,1653433729.0,-10008.0,-17000.0,-32768.0,1653433729.0,847.0,-149.0,-870.0
mpu,,,,,,,,,1653533737.0,17988.0,-12226.0,-25668.0,1653533737.0,2466.0,78.0,-2258.0
mpu,,,,,,,,,1653633731.0,16420.0,32767.0,-26160.0,1653633731.0,2135.0,-105.0,-1096.0
mpu,,,,,,,,,1653733731.0,2064.0,32767.0,-32768.0,1653733731.0,-292.0,51.0,617.0
mpu,,,,,,,,,1653833730.0,-1942.0,30802.0,-32768.0,1653833730.0,-3226.0,388.0,2292.0
mpu,,,,,,,,,1653933733.0,4892.0,-1610.0,-32768.0,1653933733.0,-2071.0,72.0,1301.0
mpu,,,,,,,,,1654033721.0,-8852.0,-15128.0,-32768.0,1654033721.0,1112.0,-39.0,-1066.0
mpu,,,,,,,,,1654133730.0,18000.0,-8280.0,-9292.0,1654133730.0,2603.0,148.0,-2162.0
mpu,,,,,,,,,1654233732.0,15270.0,32767.0,-28668.0,1654233732.0,2078.0,-445.0,-999.0
mpu,,,,,,,,,1654333731.0,6686.0,32767.0,-32768.0,1654333731.0,-623.0,219.0,845.0
mpu,,,,,,,,,1654433732.0,-1980.0,31052.0,-32768.0,1654433732.0,-3290.0,371.0,2331.0
mpu,,,,,,,,,1654533728.0,2756.0,-5536.0,-32768.0,1654533728.0,-1770.0,22.0,1200.0
mpu,,,,,,,,,1654633741.0,-15460.0,-22898.0,-32768.0,1654633741.0,1458.0,-12.0,-1413.0
mpu,,,,,,,,,1654733730.0,9050.0,2270.0,-5412.0,1654733730.0,2693.0,425.0,-2174.0
mpu,,,,,,,,,1654833731.0,5404.0,32767.0,-28984.0,1654833731.0,1858.0,-928.0,-830.0
mpu,,,,,,,,,1654933734.0,502.0,32767.0,-32768.0,1654933734.0,-1195.0,532.0,1213.0
mpu,,,,,,,,,1655033724.0,250.0,27386.0,-32768.0,1655033724.0,-3531.0,353.0,2376.0
mpu,,,,,,,,,1655133725.0,-3166.0,-10910.0,-32768.0,1655133725.0,-1278.0,-56.0,734.0
mpu,,,,,,,,,1655233729.0,-9388.0,-24532.0,-23978.0,1655233729.0,1993.0,125.0,-1835.0
mpu,,,,,,,,,1655333732.0,6318.0,18422.0,-2998.0,1655333732.0,2671.0,373.0,-1815.0
mpu,,,,,,,,,1655433729.0,2760.0,32767.0,-28366.0,1655433729.0,1299.0,-778.0,-461.0
mpu,,,,,,,,,1655533733.0,-5772.0,32767.0,-32768.0,1655533733.0,-1911.0,452.0,1604.0
mpu,,,,,,,,,1655633724.0,-2150.0,21276.0,-32768.0,1655633724.0,-3205.0,207.0,2152.0
mpu,,,,,,,,,1655733730.0,-5406.0,-23270.0,-32768.0,1655733730.0,-571.0,-103.0,114.0
mpu,,,,,,,,,1655833729.0,11112.0,-18604.0,-32696.0,1655833729.0,2320.0,160.0,-2220.0
mpu,,,,,,,,,1655933734.0,17448.0,32767.0,-7700.0,1655933734.0,2717.0,330.0,-1552.0
mpu,,,,,,,,,1656033726.0,-6986.0,32767.0,-32768.0,1656033726.0,855.0,-446.0,-45.0
mpu,,,,,,,,,1656133732.0,-4882.0,32767.0,-32768.0,1656133732.0,-2771.0,484.0,2129.0
mpu,,,,,,,,,1656233728.0,-646.0,13290.0,-32768.0,1656233728.0,-2970.0,179.0,1934.0
mpu,,,,,,,,,1656333732.0,-12132.0,-19958.0,-32768.0,1656333732.0,263.0,-189.0,-574.0
mpu,,,,,,,,,1656433731.0,24404.0,-13932.0,-22610.0,1656433731.0,2572.0,63.0,-2247.0
mpu,,,,,,,,,1656533732.0,22110.0,32767.0,-26916.0,1656533732.0,2449.0,11.0,-1086.0
mpu,,,,,,,,,1656633731.0,1100.0,32767.0,-32768.0,1656633731.0,-238.0,24.0,478.0
mpu,,,,,,,,,1656733726.0,5058.0,31386.0,-32768.0,1656733726.0,-3279.0,403.0,2295.0
mpu,,,,,,,,,1656833734.0,3234.0,-3272.0,-32768.0,1656833734.0,-2199.0,93.0,1254.0
mpu,,,,,,,,,1656933731.0,-12656.0,-18632.0,-32768.0,1656933731.0,1252.0,-167.0,-1236.0
mpu,,,,,,,,,1657033731.0,14176.0,-5290.0,-17232.0,1657033731.0,2746.0,196.0,-2191.0
mpu,,,,,,,,,1657133729.0,10618.0,32767.0,-27772.0,1657133729.0,1975.0,-263.0,-676.0
mpu,,,,,,,,,1657233737.0,1380.0,32767.0,-32768.0,1657233737.0,-1134.0,259.0,1033.0
mpu,,,,,,,,,1657333730.0,-3850.0,27452.0,-32768.0,1657333730.0,-3395.0,290.0,2344.0
mpu,,,,,,,,,1657433734.0,-3946.0,-11220.0,-32768.0,1657433734.0,-1325.0,-20.0,754.0
mpu,,,,,,,,,1657533728.0,-16790.0,-25818.0,-29572.0,1657533728.0,2088.0,3.0,-1763.0
mpu,,,,,,,,,1657633729.0,3812.0,14474.0,-2582.0,1657633729.0,2588.0,426.0,-1995.0
mpu,,,,,,,,,1657733728.0,3322.0,32767.0,-30678.0,1657733728.0,1332.0,-611.0,-404.0
mpu,,,,,,,,,1657833730.0,-4978.0,32767.0,-32768.0,1657833730.0,-2142.0,458.0,1577.0
mpu,,,,,,,,,1657933728.0,-6038.0,19282.0,-28948.0,1657933728.0,-3243.0,154.0,2159.0
mpu,,,,,,,,,1658033726.0,-7910.0,-25370.0,-32768.0,1658033726.0,-303.0,-169.0,27.0
mpu,,,,,,,,,1658133729.0,16108.0,-15776.0,-23360.0,1658133729.0,2473.0,43.0,-2199.0
mpu,,,,,,,,,1658233725.0,17772.0,32767.0,-12760.0,1658233725.0,2454.0,127.0,-1537.0
mpu,,,,,,,,,1658333733.0,-5550.0,32767.0,-32768.0,1658333733.0,312.0,-323.0,194.0
mpu,,,,,,,,,1658433734.0,-5008.0,32767.0,-32768.0,1658433734.0,-2864.0,300.0,2147.0
mpu,,,,,,,,,1658533730.0,-1232.0,9706.0,-31942.0,1658533730.0,-2529.0,246.0,1742.0
mpu,,,,,,,,,1658633732.0,-9262.0,-21884.0,-32768.0,1658633732.0,740.0,-188.0,-705.0
mpu,,,,,,,,,1658733732.0,27594.0,-12016.0,-21946.0,1658733732.0,2612.0,64.0,-2378.0
mpu,,,,,,,,,1658833727.0,16286.0,32767.0,-27656.0,1658833727.0,2397.0,-25.0,-1044.0
mpu,,,,,,,,,1658933731.0,1842.0,32767.0,-32768.0,1658933731.0,-453.0,-29.0,582.0
mpu,,,,,,,,,1659033731.0,106.0,29944.0,-32768.0,1659033731.0,-3416.0,420.0,2455.0
mpu,,,,,,,,,1659133728.0,3742.0,-6686.0,-32768.0,1659133728.0,-1893.0,17.0,1219.0
mpu,,,,,,,,,1659233725.0,-11866.0,-19556.0,-32768.0,1659233725.0,1400.0,0.0,-1447.0
mpu,,,,,,,,,1659333731.0,10922.0,-2838.0,-4638.0,1659333731.0,2723.0,281.0,-2076.0
mpu,,,,,,,,,1659433726.0,1774.0,32767.0,-23178.0,1659433726.0,1628.0,-588.0,-688.0
mpu,,,,,,,,,1659533735.0,3438.0,32767.0,-32768.0,1659533735.0,-1498.0,406.0,1339.0
mpu,,,,,,,,,1659633732.0,-964.0,26874.0,-32768.0,1659633732.0,-3268.0,347.0,2353.0
mpu,,,,,,,,,1659733731.0,-6712.0,-17450.0,-32768.0,1659733731.0,-818.0,-34.0,505.0
mpu,,,,,,,,,1659833728.0,1668.0,-21550.0,-32768.0,1659833728.0,2073.0,-13.0,-2073.0
mpu,,,,,,,,,1659933733.0,11778.0,24890.0,-1726.0,1659933733.0,2671.0,394.0,-1751.0
mpu,,,,,,,,,1660033730.0,-2378.0,32767.0,-32768.0,1660033730.0,991.0,-798.0,-331.0
mpu,,,,,,,,,1660133734.0,-4918.0,32767.0,-32768.0,1660133734.0,-2481.0,663.0,1941.0
mpu,,,,,,,,,1660233729.0,-3076.0,16558.0,-32768.0,1660233729.0,-3027.0,172.0,2100.0
mpu,,,,,,,,,1660333734.0,-10808.0,-24762.0,-32768.0,1660333734.0,161.0,-271.0,-299.0
mpu,,,,,,,,,1660433737.0,20096.0,-17430.0,-19264.0,1660433737.0,2525.0,105.0,-2302.0
mpu,,,,,,,,,1660533729.0,17464.0,32767.0,-22556.0,1660533729.0,2416.0,66.0,-1284.0
mpu,,,,,,,,,1660633729.0,-1126.0,32767.0,-32768.0,1660633729.0,-96.0,-110.0,363.0
mpu,,,,,,,,,1660733729.0,-5028.0,32767.0,-32768.0,1660733729.0,-3237.0,310.0,2302.0
mpu,,,,,,,,,1660833729.0,664.0,-1822.0,-32768.0,1660833729.0,-2190.0,106.0,1472.0
mpu,,,,,,,,,1660933735.0,-11804.0,-20486.0,-32768.0,1660933735.0,1379.0,-141.0,-1180.0
mpu,,,,,,,,,1661033731.0,15050.0,-2866.0,-14764.0,1661033731.0,2721.0,219.0,-2203.0
mpu,,,,,,,,,1661133727.0,5722.0,32767.0,-29138.0,1661133727.0,1863.0,-582.0,-867.0
mpu,,,,,,,,,1661233732.0,-4066.0,32767.0,-32768.0,1661233732.0,-1200.0,309.0,1081.0
mpu,,,,,,,,,1661333729.0,-2410.0,26944.0,-32768.0,1661333729.0,-3373.0,474.0,2441.0
mpu,,,,,,,,,1661433729.0,-3786.0,-13950.0,-32768.0,1661433729.0,-1054.0,-8.0,788.0
mpu,,,,,,,,,1661533729.0,-12430.0,-23936.0,-25354.0,1661533729.0,2018.0,-32.0,-1949.0
mpu,,,,,,,,,1661633734.0,2302.0,26020.0,-3136.0,1661633734.0,2612.0,412.0,-1887.0
mpu,,,,,,,,,1661733725.0,-658.0,32767.0,-30520.0,1661733725.0,1049.0,-785.0,-242.0
mpu,,,,,,,,,1661833734.0,-4680.0,32767.0,-32768.0,1661833734.0,-2392.0,445.0,1835.0
mpu,,,,,,,,,1661933727.0,-930.0,14854.0,-32768.0,1661933727.0,-3048.0,333.0,2024.0
mpu,,,,,,,,,1662033728.0,-9070.0,-22408.0,-32768.0,1662033728.0,122.0,-202.0,-234.0
mpu,,,,,,,,,1662133726.0,15568.0,-19958.0,-25220.0,1662133726.0,2587.0,23.0,-2367.0
mpu,,,,,,,,,1662233726.0,18778.0,32767.0,-21794.0,1662233726.0,2363.0,-73.0,-1227.0
mpu,,,,,,,,,1662333734.0,-1758.0,32767.0,-32768.0,1662333734.0,-110.0,260.0,475.0
mpu,,,,,,,,,1662433732.0,-1340.0,32767.0,-32768.0,1662433732.0,-3277.0,158.0,2221.0
mpu,,,,,,,,,1662533727.0,2106.0,-870.0,-32768.0,1662533727.0,-2305.0,10.0,1301.0
mpu,,,,,,,,,1662633731.0,-9586.0,-20868.0,-32768.0,1662633731.0,1334.0,45.0,-1095.0
mpu,,,,,,,,,1662733729.0,15400.0,-4132.0,-18176.0,1662733729.0,2762.0,106.0,-2263.0
mpu,,,,,,,,,1662833727.0,13992.0,32767.0,-32316.0,1662833727.0,1931.0,-348.0,-746.0
mpu,,,,,,,,,1662933732.0,3340.0,32767.0,-32768.0,1662933732.0,-1169.0,299.0,1025.0
mpu,,,,,,,,,1663033729.0,-1926.0,28742.0,-32768.0,1663033729.0,-3385.0,309.0,2407.0
mpu,,,,,,,,,1663133728.0,-834.0,-15620.0,-32768.0,1663133728.0,-1198.0,-9.0,851.0
mpu,,,,,,,,,1663233733.0,-7456.0,-23768.0,-27012.0,1663233733.0,2119.0,177.0,-1818.0
mpu,,,,,,,,,1663333735.0,10384.0,13898.0,-4670.0,1663333735.0,2606.0,280.0,-1798.0
mpu,,,,,,,,,1663433729.0,5002.0,32767.0,-30170.0,1663433729.0,981.0,-861.0,-432.0
mpu,,,,,,,,,1663533730.0,-5576.0,32767.0,-32768.0,1663533730.0,-2117.0,473.0,1742.0
mpu,,,,,,,,,1663633734.0,-3760.0,18256.0,-32768.0,1663633734.0,-3067.0,391.0,2113.0
mpu,,,,,,,,,1663733728.0,-9454.0,-24012.0,-32768.0,1663733728.0,-81.0,-188.0,-124.0
mpu,,,,,,,,,1663833729.0,11782.0,-17218.0,-26090.0,1663833729.0,2546.0,112.0,-2297.0
mpu,,,,,,,,,1663933731.0,10596.0,32767.0,-12230.0,1663933731.0,2409.0,-61.0,-1403.0
mpu,,,,,,,,,1664033726.0,-3662.0,32767.0,-32768.0,1664033726.0,158.0,-165.0,226.0
mpu,,,,,,,,,1664133727.0,-980.0,32767.0,-32768.0,1664133727.0,-2984.0,343.0,2218.0
mpu,,,,,,,,,1664233735.0,-1378.0,3698.0,-32164.0,1664233735.0,-2429.0,236.0,1673.0
mpu,,,,,,,,,1664333733.0,-9516.0,-18754.0,-32768.0,1664333733.0,942.0,-152.0,-842.0
mpu,,,,,,,,,1664433732.0,25892.0,-10556.0,-19104.0,1664433732.0,2669.0,30.0,-2279.0
mpu,,,,,,,,,1664533731.0,23136.0,32767.0,-30336.0,1664533731.0,2013.0,-134.0,-874.0
mpu,,,,,,,,,1664633733.0,-4144.0,32767.0,-32768.0,1664633733.0,-629.0,15.0,574.0
mpu,,,,,,,,,1664733731.0,7526.0,32767.0,-24970.0,1664733731.0,-3309.0,335.0,2147.0
mpu,,,,,,,,,1664833728.0,9022.0,-4212.0,-24884.0,1664833728.0,-1869.0,-61.0,1277.0
mpu,,,,,,,,,1664933726.0,-8874.0,-16186.0,-32768.0,1664933726.0,1747.0,9.0,-1166.0
mpu,,,,,,,,,1665033731.0,-8874.0,-16186.0,-32768.0,1665033731.0,1747.0,9.0,-1166.0
mpu,,,,,,,,,1665133728.0,22218.0,480.0,-21872.0,1665133728.0,2321.0,-19.0,-2058.0
mpu,,,,,,,,,1665233730.0,15754.0,32767.0,-25066.0,1665233730.0,1444.0,268.0,-499.0
mpu,,,,,,,,,1665333726.0,3334.0,32767.0,-32768.0,1665333726.0,-831.0,-142.0,476.0
mpu,,,,,,,,,1665433734.0,232.0,18948.0,-29552.0,1665433734.0,-2583.0,223.0,1415.0
mpu,,,,,,,,,1665533728.0,9718.0,15504.0,-32768.0,1665533728.0,-1452.0,-37.0,1341.0
mpu,,,,,,,,,1665633737.0,8362.0,4410.0,-25272.0,1665633737.0,-469.0,-29.0,740.0
mpu,,,,,,,,,1665733735.0,4208.0,7764.0,-32768.0,1665733735.0,150.0,-132.0,190.0
mpu,,,,,,,,,1665833731.0,9218.0,5562.0,-23930.0,1665833731.0,554.0,4.0,-322.0
mpu,,,,,,,,,1665933732.0,5686.0,9706.0,-22390.0,1665933732.0,329.0,69.0,-378.0
mpu,,,,,,,,,1666033734.0,7458.0,7968.0,-24444.0,1666033734.0,-195.0,-18.0,-21.0
mpu,,,,,,,,,1666133729.0,7674.0,10602.0,-23832.0,1666133729.0,-611.0,82.0,286.0
mpu,,,,,,,,,1666233725.0,8676.0,16748.0,-22376.0,1666233725.0,-488.0,-125.0,62.0
mpu,,,,,,,,,1666333727.0,5488.0,14826.0,-21868.0,1666333727.0,-195.0,120.0,-302.0
mpu,,,,,,,,,1666433725.0,5822.0,11018.0,-22384.0,1666433725.0,25.0,-26.0,-118.0
mpu,,,,,,,,,1666533735.0,6880.0,9464.0,-22978.0,1666533735.0,183.0,-8.0,44.0
mpu,,,,,,,,,1666633732.0,7084.0,9264.0,-23280.0,1666633732.0,184.0,2.0,55.0
mpu,,,,,,,,,1666733736.0,7234.0,11212.0,-23260.0,1666733736.0,24.0,-2.0,92.0
mpu,,,,,,,,,1666833730.0,6884.0,11876.0,-23074.0,1666833730.0,-91.0,-2.0,16.0
mpu,,,,,,,,,1666933736.0,7026.0,11130.0,-23218.0,1666933736.0,-95.0,6.0,-141.0
mpu,,,,,,,,,1667033733.0,6206.0,11036.0,-22700.0,1667033733.0,-63.0,55.0,-161.0
mpu,,,,,,,,,1667133729.0,6026.0,11484.0,-22700.0,1667133729.0,-31.0,11.0,-79.0
mpu,,,,,,,,,1667233726.0,6538.0,11114.0,-22594.0,1667233726.0,16.0,9.0,-19.0
mpu,,,,,,,,,1667333727.0,6340.0,11718.0,-22926.0,1667333727.0,50.0,1.0,55.0
mpu,,,,,,,,,1667433732.0,6272.0,14902.0,-24010.0,1667433732.0,146.0,21.0,-7.0
mpu,,,,,,,,,1667533728.0,6214.0,10934.0,-24132.0,1667533728.0,457.0,-7.0,-185.0
mpu,,,,,,,,,1667633728.0,2810.0,9668.0,-28836.0,1667633728.0,784.0,-99.0,-453.0
mpu,,,,,,,,,1667733733.0,278.0,9236.0,-29094.0,1667733733.0,1073.0,2.0,-613.0
mpu,,,,,,,,,1667833736.0,4958.0,7264.0,-27150.0,1667833736.0,1270.0,225.0,-689.0
mpu,,,,,,,,,1667933724.0,5916.0,12964.0,-25586.0,1667933724.0,1008.0,82.0,-650.0
mpu,,,,,,,,,1668033727.0,5392.0,19152.0,-26078.0,1668033727.0,756.0,-133.0,-582.0
mpu,,,,,,,,,1668133730.0,4192.0,27538.0,-31202.0,1668133730.0,421.0,-59.0,-201.0
mpu,,,,,,,,,1668233733.0,1712.0,26910.0,-32758.0,1668233733.0,-496.0,136.0,445.0
mpu,,,,,,,,,1668333731.0,3414.0,22506.0,-32768.0,1668333731.0,-1554.0,-20.0,1068.0
mpu,,,,,,,,,1668433730.0,6468.0,19972.0,-27488.0,1668433730.0,-1818.0,16.0,1160.0
mpu,,,,,,,,,1668533730.0,3004.0,15560.0,-27980.0,1668533730.0,-1520.0,118.0,980.0
mpu,,,,,,,,,1668633732.0,3612.0,7636.0,-27582.0,1668633732.0,-496.0,1.0,332.0
mpu,,,,,,,,,1668733730.0,966.0,-3398.0,-32768.0,1668733730.0,1033.0,-224.0,-755.0
mpu,,,,,,,,,1668833728.0,7788.0,-148.0,-27842.0,1668833728.0,1856.0,-2.0,-1569.0
mpu,,,,,,,,,1668933730.0,7228.0,8374.0,-18668.0,1668933730.0,1549.0,287.0,-1133.0
mpu,,,,,,,,,1669033730.0,3844.0,32767.0,-29546.0,1669033730.0,1148.0,13.0,-598.0
mpu,,,,,,,,,1669133729.0,-800.0,32767.0,-32768.0,1669133729.0,7.0,90.0,161.0
mpu,,,,,,,,,1669233729.0,-246.0,24066.0,-32454.0,1669233729.0,-1606.0,142.0,1146.0
mpu,,,,,,,,,1669333721.0,6482.0,23392.0,-28002.0,1669333721.0,-2180.0,-73.0,1411.0
mpu,,,,,,,,,1669433729.0,-2292.0,10226.0,-32768.0,1669433729.0,-1756.0,-80.0,1071.0
mpu,,,,,,,,,1669533730.0,5514.0,-3272.0,-29306.0,1669533730.0,40.0,14.0,9.0
mpu,,,,,,,,,1669633727.0,1252.0,214.0,-30652.0,1669633727.0,1286.0,-206.0,-944.0
mpu,,,,,,,,,1669733730.0,-462.0,-2512.0,-32768.0,1669733730.0,1633.0,163.0,-1493.0
mpu,,,,,,,,,1669833730.0,8436.0,18464.0,-19574.0,1669833730.0,1493.0,529.0,-987.0
mpu,,,,,,,,,1669933737.0,6068.0,28964.0,-24586.0,1669933737.0,1070.0,-115.0,-486.0
mpu,,,,,,,,,1670033724.0,-2828.0,27352.0,-32246.0,1670033724.0,33.0,-263.0,128.0
mpu,,,,,,,,,1670133726.0,570.0,27956.0,-32768.0,1670133726.0,-1402.0,140.0,960.0
mpu,,,,,,,,,1670233724.0,2260.0,20774.0,-28132.0,1670233724.0,-2163.0,306.0,1303.0
mpu,,,,,,,,,1670333728.0,1972.0,13856.0,-27936.0,1670333728.0,-1680.0,14.0,1078.0
mpu,,,,,,,,,1670433726.0,4104.0,2780.0,-28386.0,1670433726.0,-396.0,-265.0,333.0
mpu,,,,,,,,,1670533734.0,1094.0,-2848.0,-32768.0,1670533734.0,1092.0,-377.0,-876.0
mpu,,,,,,,,,1670633731.0,-3532.0,2228.0,-23698.0,1670633731.0,1885.0,279.0,-1817.0
mpu,,,,,,,,,1670733730.0,4130.0,20714.0,-26948.0,1670733730.0,2284.0,437.0,-1100.0
mpu,,,,,,,,,1670833728.0,5438.0,23444.0,-30442.0,1670833728.0,1646.0,-504.0,-522.0
mpu,,,,,,,,,1670933728.0,3214.0,29986.0,-32768.0,1670933728.0,322.0,-41.0,-118.0
mpu,,,,,,,,,1671033732.0,-864.0,32767.0,-32768.0,1671033732.0,-1535.0,184.0,908.0
mpu,,,,,,,,,1671133730.0,4900.0,22640.0,-25068.0,1671133730.0,-2426.0,731.0,1457.0
mpu,,,,,,,,,1671233726.0,230.0,18120.0,-27764.0,1671233726.0,-1821.0,286.0,1012.0
mpu,,,,,,,,,1671333726.0,1598.0,7562.0,-27948.0,1671333726.0,-722.0,-12.0,626.0
mpu,,,,,,,,,1671433736.0,1946.0,590.0,-32768.0,1671433736.0,631.0,-439.0,-400.0
mpu,,,,,,,,,1671533723.0,6174.0,-602.0,-32768.0,1671533723.0,1560.0,-97.0,-1247.0
mpu,,,,,,,,,1671633730.0,5046.0,7170.0,-24462.0,1671633730.0,1725.0,287.0,-1171.0
mpu,,,,,,,,,1671733730.0,5990.0,24398.0,-24142.0,1671733730.0,1605.0,205.0,-878.0
mpu,,,,,,,,,1671833728.0,-1978.0,31568.0,-32194.0,1671833728.0,1088.0,-245.0,-472.0
mpu,,,,,,,,,1671933728.0,-742.0,32767.0,-32768.0,1671933728.0,-686.0,243.0,491.0
mpu,,,,,,,,,1672033731.0,3322.0,23412.0,-29866.0,1672033731.0,-2500.0,206.0,1273.0
mpu,,,,,,,,,1672133728.0,2654.0,17972.0,-26442.0,1672133728.0,-2401.0,315.0,1132.0
mpu,,,,,,,,,1672233721.0,2358.0,9848.0,-32768.0,1672233721.0,-1615.0,-52.0,906.0
mpu,,,,,,,,,1672333733.0,706.0,1676.0,-29612.0,1672333733.0,384.0,-473.0,102.0
mpu,,,,,,,,,1672433724.0,204.0,-2090.0,-32768.0,1672433724.0,1448.0,-563.0,-953.0
mpu,,,,,,,,,1672533733.0,3092.0,6276.0,-25726.0,1672533733.0,1705.0,453.0,-1309.0
mpu,,,,,,,,,1672633732.0,8440.0,19766.0,-22736.0,1672633732.0,1621.0,166.0,-994.0
mpu,,,,,,,,,1672733733.0,824.0,30334.0,-31896.0,1672733733.0,1299.0,-177.0,-660.0
mpu,,,,,,,,,1672833732.0,804.0,27796.0,-32768.0,1672833732.0,-51.0,295.0,286.0
mpu,,,,,,,,,1672933731.0,-2208.0,27260.0,-32768.0,1672933731.0,-2002.0,178.0,927.0
mpu,,,,,,,,,1673033732.0,-884.0,19600.0,-32182.0,1673033732.0,-2566.0,-117.0,1062.0
mpu,,,,,,,,,1673133733.0,3596.0,12488.0,-28262.0,1673133733.0,-1815.0,-24.0,663.0
mpu,,,,,,,,,1673233733.0,1646.0,5388.0,-27930.0,1673233733.0,-286.0,-85.0,368.0
mpu,,,,,,,,,1673333730.0,-954.0,-1374.0,-32768.0,1673333730.0,986.0,-414.0,-627.0
mpu,,,,,,,,,1673433732.0,1886.0,2692.0,-29062.0,1673433732.0,1689.0,199.0,-1259.0
mpu,,,,,,,,,1673533732.0,4948.0,11768.0,-23014.0,1673533732.0,1785.0,420.0,-890.0
mpu,,,,,,,,,1673633729.0,7048.0,27764.0,-24076.0,1673633729.0,1650.0,-109.0,-580.0
mpu,,,,,,,,,1673733730.0,-1370.0,28964.0,-32768.0,1673733730.0,711.0,-93.0,-199.0
mpu,,,,,,,,,1673833724.0,726.0,31644.0,-32768.0,1673833724.0,-1242.0,139.0,643.0
mpu,,,,,,,,,1673933733.0,1940.0,24530.0,-30044.0,1673933733.0,-2668.0,146.0,1222.0
mpu,,,,,,,,,1674033730.0,1834.0,14330.0,-25528.0,1674033730.0,-2207.0,58.0,925.0
mpu,,,,,,,,,1674133724.0,1442.0,9092.0,-26380.0,1674133724.0,-885.0,-10.0,564.0
mpu,,,,,,,,,1674233725.0,3176.0,-888.0,-31234.0,1674233725.0,634.0,-438.0,-156.0
mpu,,,,,,,,,1674333729.0,248.0,-684.0,-32768.0,1674333729.0,1497.0,-166.0,-1130.0
mpu,,,,,,,,,1674433730.0,5062.0,9534.0,-26984.0,1674433730.0,1781.0,543.0,-1073.0
mpu,,,,,,,,,1674533728.0,6992.0,22016.0,-23694.0,1674533728.0,1695.0,193.0,-651.0
mpu,,,,,,,,,1674633733.0,-472.0,31356.0,-30862.0,1674633733.0,1135.0,-324.0,-359.0
mpu,,,,,,,,,1674733729.0,4482.0,32068.0,-32768.0,1674733729.0,-453.0,121.0,325.0
mpu,,,,,,,,,1674833727.0,594.0,23482.0,-31416.0,1674833727.0,-2345.0,177.0,1135.0
mpu,,,,,,,,,1674933730.0,3398.0,20044.0,-32768.0,1674933730.0,-2429.0,132.0,1054.0
mpu,,,,,,,,,1675033731.0,1658.0,11026.0,-28730.0,1675033731.0,-1460.0,142.0,683.0
mpu,,,,,,,,,1675133732.0,584.0,3948.0,-30218.0,1675133732.0,71.0,-392.0,132.0
mpu,,,,,,,,,1675233734.0,2716.0,-2352.0,-29342.0,1675233734.0,1271.0,-332.0,-897.0
mpu,,,,,,,,,1675333735.0,4890.0,4732.0,-25368.0,1675333735.0,1747.0,214.0,-1199.0
mpu,,,,,,,,,1675433726.0,4172.0,14490.0,-22534.0,1675433726.0,1722.0,489.0,-815.0
mpu,,,,,,,,,1675533725.0,6778.0,30698.0,-29540.0,1675533725.0,1431.0,-321.0,-562.0
mpu,,,,,,,,,1675633727.0,-1640.0,27834.0,-32768.0,1675633727.0,290.0,-36.0,14.0
mpu,,,,,,,,,1675733727.0,2776.0,30366.0,-32768.0,1675733727.0,-1761.0,152.0,952.0
mpu,,,,,,,,,1675833732.0,-2246.0,18892.0,-30980.0,1675833732.0,-2638.0,364.0,1255.0
mpu,,,,,,,,,1675933732.0,1422.0,12538.0,-26436.0,1675933732.0,-1885.0,86.0,856.0
mpu,,,,,,,,,1676033728.0,2442.0,5298.0,-27890.0,1676033728.0,-395.0,-348.0,341.0
mpu,,,,,,,,,1676133730.0,-2404.0,-1838.0,-32768.0,1676133730.0,1007.0,-425.0,-544.0
mpu,,,,,,,,,1676233727.0,8098.0,510.0,-27220.0,1676233727.0,1697.0,73.0,-1303.0
mpu,,,,,,,,,1676333726.0,5412.0,14888.0,-23262.0,1676333726.0,1754.0,555.0,-977.0
mpu,,,,,,,,,1676433726.0,3286.0,27332.0,-26892.0,1676433726.0,1497.0,-46.0,-659.0
mpu,,,,,,,,,1676533729.0,-500.0,30842.0,-32768.0,1676533729.0,735.0,-205.0,-101.0
mpu,,,,,,,,,1676633733.0,1554.0,31924.0,-32768.0,1676633733.0,-1264.0,80.0,674.0
mpu,,,,,,,,,1676733731.0,7010.0,25818.0,-32768.0,1676733731.0,-2627.0,244.0,1184.0
mpu,,,,,,,,,1676833730.0,782.0,15914.0,-25414.0,1676833730.0,-2228.0,117.0,923.0
mpu,,,,,,,,,1676933733.0,4512.0,6894.0,-26182.0,1676933733.0,-842.0,-257.0,490.0
mpu,,,,,,,,,1677033730.0,1562.0,1190.0,-32618.0,1677033730.0,688.0,-359.0,-242.0
mpu,,,,,,,,,1677133727.0,3260.0,-522.0,-28950.0,1677133727.0,1666.0,-3.0,-1148.0
mpu,,,,,,,,,1677233728.0,4784.0,11596.0,-20254.0,1677233728.0,1786.0,439.0,-1049.0
mpu,,,,,,,,,1677333726.0,4806.0,22784.0,-24332.0,1677333726.0,1609.0,112.0,-689.0
mpu,,,,,,,,,1677433725.0,1708.0,31840.0,-32768.0,1677433725.0,1084.0,-247.0,-314.0
mpu,,,,,,,,,1677533732.0,72.0,32767.0,-32768.0,1677533732.0,-674.0,127.0,414.0
mpu,,,,,,,,,1677633730.0,-172.0,25486.0,-31792.0,1677633730.0,-2528.0,277.0,1135.0
mpu,,,,,,,,,1677733731.0,4572.0,17688.0,-29396.0,1677733731.0,-2429.0,71.0,1025.0
mpu,,,,,,,,,1677833729.0,2596.0,7780.0,-28382.0,1677833729.0,-1274.0,-122.0,649.0
mpu,,,,,,,,,1677933731.0,936.0,3442.0,-31906.0,1677933731.0,301.0,-417.0,-44.0
mpu,,,,,,,,,1678033730.0,4210.0,-1934.0,-32768.0,1678033730.0,1540.0,-103.0,-1038.0
mpu,,,,,,,,,1678133727.0,2930.0,7670.0,-23394.0,1678133727.0,1831.0,467.0,-1100.0
mpu,,,,,,,,,1678233731.0,9144.0,20946.0,-20528.0,1678233731.0,1666.0,184.0,-723.0
mpu,,,,,,,,,1678333732.0,5254.0,32168.0,-32768.0,1678333732.0,1270.0,-390.0,-452.0
mpu,,,,,,,,,1678433735.0,-2182.0,30378.0,-32768.0,1678433735.0,-220.0,163.0,253.0
mpu,,,,,,,,,1678533732.0,-3684.0,26064.0,-32768.0,1678533732.0,-2227.0,197.0,1103.0
mpu,,,,,,,,,1678633726.0,1306.0,20894.0,-32092.0,1678633726.0,-2523.0,162.0,1134.0
mpu,,,,,,,,,1678733736.0,1098.0,9418.0,-26562.0,1678733736.0,-1545.0,89.0,667.0
mpu,,,,,,,,,1678833731.0,1520.0,3106.0,-30848.0,1678833731.0,47.0,-472.0,97.0
mpu,,,,,,,,,1678933732.0,1610.0,-1984.0,-28284.0,1678933732.0,1321.0,-209.0,-901.0
mpu,,,,,,,,,1679033734.0,4746.0,4242.0,-26008.0,1679033734.0,1826.0,255.0,-1151.0
mpu,,,,,,,,,1679133731.0,6158.0,15928.0,-23756.0,1679133731.0,1702.0,432.0,-817.0
mpu,,,,,,,,,1679233732.0,2578.0,31132.0,-31812.0,1679233732.0,1457.0,-281.0,-520.0
mpu,,,,,,,,,1679333725.0,-4994.0,28414.0,-32768.0,1679333725.0,143.0,-11.0,111.0
mpu,,,,,,,,,1679433735.0,-1010.0,26978.0,-32768.0,1679433735.0,-1937.0,43.0,967.0
mpu,,,,,,,,,1679533726.0,626.0,21924.0,-30794.0,1679533726.0,-2604.0,189.0,1219.0
mpu,,,,,,,,,1679633726.0,2196.0,11458.0,-24990.0,1679633726.0,-1814.0,222.0,815.0
mpu,,,,,,,,,1679733727.0,944.0,5678.0,-29934.0,1679733727.0,-295.0,-380.0,313.0
mpu,,,,,,,,,1679833730.0,-1556.0,-2790.0,-32422.0,1679833730.0,1141.0,-305.0,-608.0
mpu,,,,,,,,,1679933730.0,5372.0,2654.0,-24452.0,1679933730.0,1782.0,182.0,-1261.0
mpu,,,,,,,,,1680033729.0,6410.0,12068.0,-22372.0,1680033729.0,1784.0,341.0,-878.0
mpu,,,,,,,,,1680133724.0,4774.0,29638.0,-27752.0,1680133724.0,1492.0,-134.0,-656.0
mpu,,,,,,,,,1680233733.0,-4306.0,29228.0,-32768.0,1680233733.0,507.0,-26.0,-119.0
mpu,,,,,,,,,1680333726.0,-1140.0,29802.0,-32768.0,1680333726.0,-1497.0,53.0,745.0
mpu,,,,,,,,,1680433737.0,2138.0,24050.0,-26010.0,1680433737.0,-2616.0,314.0,1259.0
mpu,,,,,,,,,1680533727.0,1784.0,14668.0,-25824.0,1680533727.0,-2100.0,106.0,896.0
mpu,,,,,,,,,1680633727.0,3172.0,5190.0,-28448.0,1680633727.0,-636.0,-354.0,464.0
mpu,,,,,,,,,1680733732.0,660.0,-638.0,-32768.0,1680733732.0,917.0,-335.0,-393.0
mpu,,,,,,,,,1680833736.0,3574.0,202.0,-32524.0,1680833736.0,1842.0,55.0,-1212.0
mpu,,,,,,,,,1680933728.0,8784.0,13400.0,-20678.0,1680933728.0,1777.0,392.0,-1050.0
mpu,,,,,,,,,1681033733.0,4380.0,25148.0,-25654.0,1681033733.0,1531.0,-127.0,-700.0
mpu,,,,,,,,,1681133735.0,-1802.0,30186.0,-32768.0,1681133735.0,879.0,-68.0,-241.0
mpu,,,,,,,,,1681233727.0,-2590.0,30900.0,-32768.0,1681233727.0,-1000.0,92.0,518.0
mpu,,,,,,,,,1681333731.0,2602.0,24142.0,-30760.0,1681333731.0,-2616.0,212.0,1219.0
mpu,,,,,,,,,1681433732.0,1576.0,16280.0,-27988.0,1681433732.0,-2338.0,164.0,917.0
mpu,,,,,,,,,1681533724.0,2994.0,9046.0,-26988.0,1681533724.0,-1130.0,-167.0,590.0
mpu,,,,,,,,,1681633726.0,1822.0,500.0,-31024.0,1681633726.0,477.0,-346.0,-104.0
mpu,,,,,,,,,1681733733.0,2174.0,-1802.0,-32768.0,1681733733.0,1604.0,-69.0,-937.0
mpu,,,,,,,,,1681833724.0,5176.0,8794.0,-23472.0,1681833724.0,1878.0,380.0,-1001.0
mpu,,,,,,,,,1681933731.0,7736.0,21304.0,-19370.0,1681933731.0,1662.0,256.0,-754.0
mpu,,,,,,,,,1682033725.0,1860.0,31384.0,-32768.0,1682033725.0,1257.0,-462.0,-402.0
mpu,,,,,,,,,1682133735.0,1304.0,31814.0,-32768.0,1682133735.0,-301.0,2.0,248.0
mpu,,,,,,,,,1682233737.0,256.0,24716.0,-32768.0,1682233737.0,-2309.0,-56.0,1261.0
mpu,,,,,,,,,1682333733.0,1768.0,17394.0,-28378.0,1682333733.0,-2388.0,364.0,1191.0
mpu,,,,,,,,,1682433731.0,306.0,11258.0,-27912.0,1682433731.0,-1461.0,293.0,723.0
mpu,,,,,,,,,1682533733.0,50.0,3710.0,-30434.0,1682533733.0,11.0,-384.0,178.0
mpu,,,,,,,,,1682633729.0,534.0,-3038.0,-27436.0,1682633729.0,1300.0,-221.0,-854.0
mpu,,,,,,,,,1682733736.0,3946.0,5652.0,-24254.0,1682733736.0,1718.0,105.0,-1195.0
mpu,,,,,,,,,1682833731.0,4744.0,14406.0,-20754.0,1682833731.0,1717.0,514.0,-917.0
mpu,,,,,,,,,1682933733.0,3794.0,29984.0,-30050.0,1682933733.0,1437.0,-458.0,-511.0
mpu,,,,,,,,,1683033734.0,-2526.0,28992.0,-32768.0,1683033734.0,227.0,239.0,12.0
mpu,,,,,,,,,1683133734.0,-2072.0,27340.0,-32768.0,1683133734.0,-1844.0,-73.0,929.0
mpu,,,,,,,,,1683233730.0,3352.0,21586.0,-31624.0,1683233730.0,-2577.0,192.0,1291.0
mpu,,,,,,,,,1683333726.0,1098.0,12740.0,-24694.0,1683333726.0,-1768.0,385.0,828.0
mpu,,,,,,,,,1683433724.0,2716.0,6008.0,-28830.0,1683433724.0,-314.0,-396.0,371.0
mpu,,,,,,,,,1683533729.0,-1206.0,-2092.0,-32768.0,1683533729.0,1033.0,-386.0,-503.0
mpu,,,,,,,,,1683633733.0,6296.0,2582.0,-28208.0,1683633733.0,1664.0,31.0,-1254.0
mpu,,,,,,,,,1683733729.0,2938.0,10724.0,-19474.0,1683733729.0,1713.0,400.0,-1080.0
mpu,,,,,,,,,1683833730.0,5926.0,26218.0,-26982.0,1683833730.0,1525.0,-143.0,-626.0
mpu,,,,,,,,,1683933730.0,282.0,30818.0,-32768.0,1683933730.0,669.0,0.0,-118.0
mpu,,,,,,,,,1684033727.0,3164.0,30724.0,-32768.0,1684033727.0,-1266.0,1.0,614.0
mpu,,,,,,,,,1684133731.0,3144.0,25046.0,-31224.0,1684133731.0,-2607.0,18.0,1232.0
mpu,,,,,,,,,1684233737.0,1704.0,13488.0,-28466.0,1684233737.0,-2136.0,200.0,983.0
mpu,,,,,,,,,1684333730.0,3492.0,8020.0,-28054.0,1684333730.0,-857.0,-29.0,463.0
mpu,,,,,,,,,1684433730.0,1462.0,-278.0,-32438.0,1684433730.0,664.0,-423.0,-235.0
mpu,,,,,,,,,1684533730.0,1386.0,-530.0,-32768.0,1684533730.0,1631.0,-55.0,-1174.0
mpu,,,,,,,,,1684633733.0,6210.0,10104.0,-22870.0,1684633733.0,1822.0,501.0,-1021.0
mpu,,,,,,,,,1684733732.0,6020.0,22174.0,-26750.0,1684733732.0,1573.0,126.0,-692.0
mpu,,,,,,,,,1684833727.0,1472.0,31904.0,-29700.0,1684833727.0,1114.0,-297.0,-315.0
mpu,,,,,,,,,1684933738.0,3388.0,31200.0,-32768.0,1684933738.0,-496.0,1.0,335.0
mpu,,,,,,,,,1685033728.0,778.0,27036.0,-32768.0,1685033728.0,-2391.0,291.0,1127.0
mpu,,,,,,,,,1685133731.0,2762.0,18268.0,-31750.0,1685133731.0,-2478.0,199.0,968.0
mpu,,,,,,,,,1685233728.0,1046.0,6786.0,-27878.0,1685233728.0,-1502.0,-7.0,557.0
mpu,,,,,,,,,1685333724.0,1256.0,2656.0,-29948.0,1685333724.0,102.0,-389.0,-16.0
mpu,,,,,,,,,1685433730.0,1488.0,-2848.0,-31526.0,1685433730.0,1409.0,-145.0,-904.0
mpu,,,,,,,,,1685533727.0,3582.0,4478.0,-25740.0,1685533727.0,1821.0,303.0,-1024.0
mpu,,,,,,,,,1685633731.0,4566.0,16810.0,-20494.0,1685633731.0,1733.0,434.0,-746.0
mpu,,,,,,,,,1685733737.0,4804.0,31510.0,-32768.0,1685733737.0,1559.0,-402.0,-480.0
mpu,,,,,,,,,1685833729.0,-848.0,29180.0,-32768.0,1685833729.0,195.0,138.0,50.0
mpu,,,,,,,,,1685933731.0,-1270.0,28128.0,-32768.0,1685933731.0,-1966.0,80.0,1029.0
mpu,,,,,,,,,1686033729.0,4330.0,19656.0,-32768.0,1686033729.0,-2698.0,238.0,1213.0
mpu,,,,,,,,,1686133731.0,-230.0,12728.0,-25798.0,1686133731.0,-1842.0,156.0,850.0
mpu,,,,,,,,,1686233734.0,3440.0,5010.0,-28436.0,1686233734.0,-331.0,-408.0,387.0
mpu,,,,,,,,,1686333734.0,-2428.0,-778.0,-31760.0,1686333734.0,1023.0,-323.0,-558.0
mpu,,,,,,,,,1686433732.0,8372.0,976.0,-29612.0,1686433732.0,1664.0,71.0,-1271.0
mpu,,,,,,,,,1686533729.0,5962.0,12840.0,-20526.0,1686533729.0,1753.0,526.0,-906.0
mpu,,,,,,,,,1686633735.0,5120.0,28180.0,-26074.0,1686633735.0,1569.0,-49.0,-614.0
mpu,,,,,,,,,1686733732.0,240.0,29984.0,-32768.0,1686733732.0,718.0,-236.0,-147.0
mpu,,,,,,,,,1686833731.0,-82.0,32020.0,-32768.0,1686833731.0,-1155.0,24.0,597.0
mpu,,,,,,,,,1686933728.0,2686.0,25110.0,-31218.0,1686933728.0,-2640.0,254.0,1190.0
mpu,,,,,,,,,1687033725.0,2212.0,15926.0,-28252.0,1687033725.0,-2296.0,244.0,870.0
mpu,,,,,,,,,1687133732.0,2628.0,7848.0,-28412.0,1687133732.0,-1047.0,-121.0,440.0
mpu,,,,,,,,,1687233730.0,1736.0,-1050.0,-31042.0,1687233730.0,570.0,-382.0,-306.0
mpu,,,,,,,,,1687333726.0,-954.0,-664.0,-32768.0,1687333726.0,1646.0,-123.0,-1076.0
mpu,,,,,,,,,1687433730.0,4138.0,8174.0,-24678.0,1687433730.0,1938.0,446.0,-937.0
mpu,,,,,,,,,1687533724.0,7564.0,23878.0,-22332.0,1687533724.0,1769.0,124.0,-596.0
mpu,,,,,,,,,1687633722.0,1956.0,31252.0,-32768.0,1687633722.0,1171.0,-244.0,-359.0
mpu,,,,,,,,,1687733728.0,-1940.0,31644.0,-32768.0,1687733728.0,-543.0,85.0,304.0
mpu,,,,,,,,,1687833733.0,-926.0,23688.0,-32334.0,1687833733.0,-2493.0,207.0,1162.0
mpu,,,,,,,,,1687933733.0,2940.0,19684.0,-31336.0,1687933733.0,-2417.0,152.0,1101.0
mpu,,,,,,,,,1688033728.0,1968.0,9796.0,-26494.0,1688033728.0,-1348.0,98.0,688.0
mpu,,,,,,,,,1688133732.0,2706.0,2598.0,-29800.0,1688133732.0,237.0,-437.0,30.0
mpu,,,,,,,,,1688233731.0,2600.0,-1566.0,-32768.0,1688233731.0,1389.0,-262.0,-949.0
mpu,,,,,,,,,1688333734.0,2614.0,5412.0,-26466.0,1688333734.0,1721.0,404.0,-1149.0
mpu,,,,,,,,,1688433728.0,5972.0,15208.0,-20376.0,1688433728.0,1612.0,313.0,-797.0
mpu,,,,,,,,,1688533726.0,1242.0,31996.0,-31174.0,1688533726.0,1266.0,-445.0,-545.0
mpu,,,,,,,,,1688633730.0,-1802.0,31488.0,-32768.0,1688633730.0,142.0,25.0,123.0
mpu,,,,,,,,,1688733727.0,-1614.0,25582.0,-32768.0,1688733727.0,-1936.0,285.0,1067.0
mpu,,,,,,,,,1688833735.0,-470.0,23000.0,-29934.0,1688833735.0,-2504.0,265.0,1160.0
mpu,,,,,,,,,1688933733.0,2118.0,10846.0,-24452.0,1688933733.0,-1822.0,3.0,759.0
mpu,,,,,,,,,1689033729.0,106.0,5254.0,-29660.0,1689033729.0,-307.0,-352.0,252.0
